subject,list,position,trial_type,item,item_index,session,list_type,category,response,response_time,list_category
1,2,1,study,SEAN PENN,228,1,mixed,cel,3.0,1.255,mixed
1,2,2,study,AUDREY HEPBURN,19,1,mixed,cel,3.0,1.04,mixed
1,2,3,study,ST PATRICKS CATHEDRAL,463,1,mixed,loc,2.0,1.1640000000000001,mixed
1,2,4,study,LES INVALIDES,364,1,mixed,loc,2.0,0.8290000000000001,mixed
1,2,5,study,GREAT ZIMBABWE RUINS,340,1,mixed,loc,3.0,0.872,mixed
1,2,6,study,BRYCE CANYON,281,1,mixed,loc,2.0,1.2409999999999999,mixed
1,2,7,study,TROPHY,745,1,mixed,obj,3.0,0.862,mixed
1,2,8,study,BRUSH,548,1,mixed,obj,3.0,0.779,mixed
1,2,9,study,SUPREME COURT,469,1,mixed,loc,2.0,1.245,mixed
1,2,10,study,SAN FRANCISCO,444,1,mixed,loc,4.0,0.8540000000000001,mixed
1,2,11,study,TREVI FOUNTAIN,483,1,mixed,loc,2.0,1.0490000000000002,mixed
1,2,12,study,TAHITI,472,1,mixed,loc,4.0,0.8240000000000001,mixed
1,2,13,study,ANDRE3000,11,1,mixed,cel,2.0,1.263,mixed
1,2,14,study,NICOLAS CAGE,191,1,mixed,cel,3.0,0.752,mixed
1,2,15,study,JUSTIN TIMBERLAKE,146,1,mixed,cel,4.0,0.898,mixed
1,2,16,study,JULIA ROBERTS,144,1,mixed,cel,4.0,0.805,mixed
1,2,17,study,LEBRON JAMES,159,1,mixed,cel,2.0,0.9279999999999999,mixed
1,2,18,study,JOHN MCCAIN,138,1,mixed,cel,2.0,1.018,mixed
1,2,19,study,GLASS,596,1,mixed,obj,3.0,1.051,mixed
1,2,20,study,KLEENEX,627,1,mixed,obj,4.0,0.855,mixed
1,2,21,study,BLENDER,537,1,mixed,obj,2.0,1.171,mixed
1,2,22,study,HELMET,610,1,mixed,obj,1.0,1.139,mixed
1,2,23,study,CHAIR,561,1,mixed,obj,4.0,0.9329999999999999,mixed
1,2,24,study,BRICK,546,1,mixed,obj,1.0,1.043,mixed
1,2,1,recall,BRICK,546,1,mixed,obj,1.0,1.043,mixed
1,2,2,recall,CHAIR,561,1,mixed,obj,4.0,0.9329999999999999,mixed
1,2,3,recall,JULIA ROBERTS,144,1,mixed,cel,4.0,0.805,mixed
1,2,4,recall,JUSTIN TIMBERLAKE,146,1,mixed,cel,4.0,0.898,mixed
1,2,5,recall,SEAN PENN,228,1,mixed,cel,3.0,1.255,mixed
1,2,6,recall,LEBRON JAMES,159,1,mixed,cel,2.0,0.9279999999999999,mixed
1,2,7,recall,JOHN MCCAIN,138,1,mixed,cel,2.0,1.018,mixed
1,2,8,recall,GLASS,596,1,mixed,obj,3.0,1.051,mixed
1,2,9,recall,TAHITI,472,1,mixed,loc,4.0,0.8240000000000001,mixed
1,2,10,recall,SAN FRANCISCO,444,1,mixed,loc,4.0,0.8540000000000001,mixed
1,2,11,recall,ST PATRICKS CATHEDRAL,463,1,mixed,loc,2.0,1.1640000000000001,mixed
1,2,12,recall,BRYCE CANYON,281,1,mixed,loc,2.0,1.2409999999999999,mixed
1,2,13,recall,NICOLAS CAGE,191,1,mixed,cel,3.0,0.752,mixed
1,2,14,recall,TROPHY,745,1,mixed,obj,3.0,0.862,mixed
1,3,1,study,STOVE,725,1,mixed,obj,4.0,0.9440000000000001,mixed
1,3,2,study,TOASTER,737,1,mixed,obj,4.0,0.6729999999999999,mixed
1,3,3,study,TILE,735,1,mixed,obj,3.0,1.025,mixed
1,3,4,study,TEAPOT,731,1,mixed,obj,4.0,0.725,mixed
1,3,5,study,ACROPOLIS,258,1,mixed,loc,3.0,1.24,mixed
1,3,6,study,GUGGENHEIM,341,1,mixed,loc,2.0,1.308,mixed
1,3,7,study,STATUE OF LIBERTY,465,1,mixed,loc,4.0,0.853,mixed
1,3,8,study,GIANT'S CAUSEWAY,327,1,mixed,loc,1.0,1.136,mixed
1,3,9,study,KATIE HOLMES,149,1,mixed,cel,4.0,0.9009999999999999,mixed
1,3,10,study,REGIS PHILBIN,210,1,mixed,cel,2.0,1.04,mixed
1,3,11,study,TOM HANKS,244,1,mixed,cel,4.0,0.93,mixed
1,3,12,study,QUEEN LATIFAH,206,1,mixed,cel,4.0,0.8140000000000001,mixed
1,3,13,study,JOHN F KENNEDY,134,1,mixed,cel,3.0,0.846,mixed
1,3,14,study,JODIE FOSTER,131,1,mixed,cel,4.0,0.909,mixed
1,3,15,study,DEVIL'S TOWER,311,1,mixed,loc,1.0,1.065,mixed
1,3,16,study,ARABIAN TOWER,265,1,mixed,loc,2.0,0.882,mixed
1,3,17,study,OLD FAITHFUL,407,1,mixed,loc,3.0,0.868,mixed
1,3,18,study,ST PAULS CATHEDRAL,464,1,mixed,loc,3.0,0.8590000000000001,mixed
1,3,19,study,PIANO,673,1,mixed,obj,4.0,0.748,mixed
1,3,20,study,SCISSORS,700,1,mixed,obj,4.0,0.841,mixed
1,3,21,study,WEDDING DRESS,760,1,mixed,obj,3.0,0.79,mixed
1,3,22,study,LAPTOP,633,1,mixed,obj,4.0,1.012,mixed
1,3,23,study,RUSSELL CROWE,222,1,mixed,cel,4.0,0.8390000000000001,mixed
1,3,24,study,GWEN STEFANI,97,1,mixed,cel,4.0,0.73,mixed
1,3,1,recall,RUSSELL CROWE,222,1,mixed,cel,4.0,0.8390000000000001,mixed
1,3,2,recall,GWEN STEFANI,97,1,mixed,cel,4.0,0.73,mixed
1,3,3,recall,LAPTOP,633,1,mixed,obj,4.0,1.012,mixed
1,3,4,recall,STOVE,725,1,mixed,obj,4.0,0.9440000000000001,mixed
1,3,5,recall,TOASTER,737,1,mixed,obj,4.0,0.6729999999999999,mixed
1,3,6,recall,KATIE HOLMES,149,1,mixed,cel,4.0,0.9009999999999999,mixed
1,3,7,recall,REGIS PHILBIN,210,1,mixed,cel,2.0,1.04,mixed
1,3,8,recall,TOM HANKS,244,1,mixed,cel,4.0,0.93,mixed
1,3,9,recall,ST PAULS CATHEDRAL,464,1,mixed,loc,3.0,0.8590000000000001,mixed
1,3,10,recall,ACROPOLIS,258,1,mixed,loc,3.0,1.24,mixed
1,3,11,recall,JOHN F KENNEDY,134,1,mixed,cel,3.0,0.846,mixed
1,3,12,recall,QUEEN LATIFAH,206,1,mixed,cel,4.0,0.8140000000000001,mixed
1,3,13,recall,ARABIAN TOWER,265,1,mixed,loc,2.0,0.882,mixed
1,3,14,recall,STATUE OF LIBERTY,465,1,mixed,loc,4.0,0.853,mixed
1,3,15,recall,DEVIL'S TOWER,311,1,mixed,loc,1.0,1.065,mixed
1,3,16,recall,WEDDING DRESS,760,1,mixed,obj,3.0,0.79,mixed
1,3,17,recall,TILE,735,1,mixed,obj,3.0,1.025,mixed
1,3,18,recall,SCISSORS,700,1,mixed,obj,4.0,0.841,mixed
1,4,1,study,BRANDENBURG GATE,278,1,mixed,loc,1.0,1.321,mixed
1,4,2,study,JENNE MOSQUE,353,1,mixed,loc,2.0,0.871,mixed
1,4,3,study,USHER,247,1,mixed,cel,4.0,0.972,mixed
1,4,4,study,NEWT GINGRICH,190,1,mixed,cel,3.0,0.865,mixed
1,4,5,study,TOMATO,740,1,mixed,obj,4.0,0.847,mixed
1,4,6,study,MICROSCOPE,651,1,mixed,obj,3.0,0.6409999999999999,mixed
1,4,7,study,ELIZABETH TAYLOR,84,1,mixed,cel,4.0,0.465,mixed
1,4,8,study,FAITH HILL,87,1,mixed,cel,2.0,0.544,mixed
1,4,9,study,BILLY CRYSTAL,34,1,mixed,cel,3.0,0.6659999999999999,mixed
1,4,10,study,MOUNT KILIMANJARO,395,1,mixed,loc,2.0,0.6779999999999999,mixed
1,4,11,study,QUINCY MARKET,431,1,mixed,loc,3.0,0.747,mixed
1,4,12,study,NIAGARA FALLS,403,1,mixed,loc,4.0,0.604,mixed
1,4,13,study,STAMP,719,1,mixed,obj,3.0,0.6609999999999999,mixed
1,4,14,study,SHELF,704,1,mixed,obj,2.0,0.764,mixed
1,4,15,study,MASCARA,645,1,mixed,obj,4.0,0.6729999999999999,mixed
1,4,16,study,JESSICA SIMPSON,123,1,mixed,cel,3.0,0.768,mixed
1,4,17,study,OWEN WILSON,196,1,mixed,cel,4.0,0.8320000000000001,mixed
1,4,18,study,LIAM NEESON,161,1,mixed,cel,3.0,0.93,mixed
1,4,19,study,PEARL HARBOR,416,1,mixed,loc,4.0,0.767,mixed
1,4,20,study,SALT LAKE TEMPLE,442,1,mixed,loc,3.0,1.062,mixed
1,4,21,study,GRAND CANYON,333,1,mixed,loc,4.0,0.765,mixed
1,4,22,study,BASEBALL BAT,528,1,mixed,obj,4.0,1.119,mixed
1,4,23,study,HANGER,608,1,mixed,obj,4.0,0.755,mixed
1,4,24,study,SURGE PROTECTOR,726,1,mixed,obj,3.0,0.862,mixed
1,4,1,recall,SURGE PROTECTOR,726,1,mixed,obj,3.0,0.862,mixed
1,4,2,recall,BASEBALL BAT,528,1,mixed,obj,4.0,1.119,mixed
1,4,3,recall,JESSICA SIMPSON,123,1,mixed,cel,3.0,0.768,mixed
1,4,4,recall,LIAM NEESON,161,1,mixed,cel,3.0,0.93,mixed
1,4,5,recall,USHER,247,1,mixed,cel,4.0,0.972,mixed
1,4,6,recall,ELIZABETH TAYLOR,84,1,mixed,cel,4.0,0.465,mixed
1,4,7,recall,PEARL HARBOR,416,1,mixed,loc,4.0,0.767,mixed
1,4,8,recall,NIAGARA FALLS,403,1,mixed,loc,4.0,0.604,mixed
1,4,9,recall,HANGER,608,1,mixed,obj,4.0,0.755,mixed
1,6,1,study,BARCODE SCANNER,527,1,mixed,obj,3.0,1.215,mixed
1,6,2,study,BANDAID,523,1,mixed,obj,4.0,0.78,mixed
1,6,3,study,TOM CRUISE,243,1,mixed,cel,4.0,0.649,mixed
1,6,4,study,LINDSAY LOHAN,162,1,mixed,cel,4.0,0.77,mixed
1,6,5,study,GEORGE WASHINGTON BRIDGE,325,1,mixed,loc,3.0,1.296,mixed
1,6,6,study,MALL OF AMERICA,377,1,mixed,loc,4.0,0.903,mixed
1,6,7,study,GREAT WALL OF CHINA,339,1,mixed,loc,3.0,0.7140000000000001,mixed
1,6,8,study,BRUCE WILLIS,44,1,mixed,cel,4.0,0.83,mixed
1,6,9,study,AUDREY TATOU,20,1,mixed,cel,2.0,1.189,mixed
1,6,10,study,GRACELAND,332,1,mixed,loc,2.0,1.2770000000000001,mixed
1,6,11,study,CHICAGO,297,1,mixed,loc,4.0,0.878,mixed
1,6,12,study,NECKLACE,658,1,mixed,obj,3.0,0.608,mixed
1,6,13,study,PEDAL,665,1,mixed,obj,3.0,1.068,mixed
1,6,14,study,KATE WINSLET,147,1,mixed,cel,4.0,0.768,mixed
1,6,15,study,CARY GRANT,47,1,mixed,cel,4.0,0.659,mixed
1,6,16,study,MADONNA,166,1,mixed,cel,4.0,0.794,mixed
1,6,17,study,SAMUEL L JACKSON,224,1,mixed,cel,4.0,0.728,mixed
1,6,18,study,ROSE,693,1,mixed,obj,2.0,0.594,mixed
1,6,19,study,CANOE,557,1,mixed,obj,1.0,1.198,mixed
1,6,20,study,PAPER BAG,663,1,mixed,obj,1.0,0.973,mixed
1,6,21,study,BELL,533,1,mixed,obj,2.0,0.865,mixed
1,6,22,study,MADISON SQUARE GARDEN,376,1,mixed,loc,3.0,1.031,mixed
1,6,23,study,ANGEL FALLS,263,1,mixed,loc,4.0,0.64,mixed
1,6,24,study,MASADA,379,1,mixed,loc,3.0,0.602,mixed
1,6,1,recall,MASADA,379,1,mixed,loc,3.0,0.602,mixed
1,6,2,recall,ANGEL FALLS,263,1,mixed,loc,4.0,0.64,mixed
1,6,3,recall,LINDSAY LOHAN,162,1,mixed,cel,4.0,0.77,mixed
1,6,4,recall,TOM CRUISE,243,1,mixed,cel,4.0,0.649,mixed
1,6,5,recall,MADONNA,166,1,mixed,cel,4.0,0.794,mixed
1,6,6,recall,SAMUEL L JACKSON,224,1,mixed,cel,4.0,0.728,mixed
1,6,7,recall,KATE WINSLET,147,1,mixed,cel,4.0,0.768,mixed
1,6,8,recall,AUDREY TATOU,20,1,mixed,cel,2.0,1.189,mixed
1,6,9,recall,MADISON SQUARE GARDEN,376,1,mixed,loc,3.0,1.031,mixed
1,6,10,recall,CHICAGO,297,1,mixed,loc,4.0,0.878,mixed
1,6,11,recall,BANDAID,523,1,mixed,obj,4.0,0.78,mixed
1,6,12,recall,BARCODE SCANNER,527,1,mixed,obj,3.0,1.215,mixed
1,6,13,recall,PAPER BAG,663,1,mixed,obj,1.0,0.973,mixed
1,8,1,study,MOUNT EVEREST,393,1,mixed,loc,4.0,0.847,mixed
1,8,2,study,PHILADELPHIA ART MUSEUM,421,1,mixed,loc,2.0,1.122,mixed
1,8,3,study,WASHINGTON SQUARE ARCH,498,1,mixed,loc,2.0,0.851,mixed
1,8,4,study,KNIFE,628,1,mixed,obj,3.0,0.875,mixed
1,8,5,study,ACORN,512,1,mixed,obj,2.0,0.997,mixed
1,8,6,study,WHIP,762,1,mixed,obj,3.0,1.0190000000000001,mixed
1,8,7,study,MIKE MYERS,183,1,mixed,cel,4.0,0.7490000000000001,mixed
1,8,8,study,MARGARET THATCHER,168,1,mixed,cel,3.0,0.688,mixed
1,8,9,study,MEG RYAN,175,1,mixed,cel,2.0,0.7140000000000001,mixed
1,8,10,study,CD,559,1,mixed,obj,3.0,0.649,mixed
1,8,11,study,BOLT,539,1,mixed,obj,3.0,0.841,mixed
1,8,12,study,GLOVES,598,1,mixed,obj,3.0,1.0659999999999998,mixed
1,8,13,study,LIPSTICK,642,1,mixed,obj,4.0,0.8370000000000001,mixed
1,8,14,study,PURSE,682,1,mixed,obj,4.0,0.583,mixed
1,8,15,study,NATIONAL AQUARIUM,400,1,mixed,loc,2.0,0.872,mixed
1,8,16,study,YOSEMITE,510,1,mixed,loc,3.0,0.58,mixed
1,8,17,study,WIMBLEDON,502,1,mixed,loc,3.0,0.5479999999999999,mixed
1,8,18,study,COLONIAL WILLIAMSBURG,304,1,mixed,loc,3.0,0.768,mixed
1,8,19,study,PETRA,418,1,mixed,loc,3.0,0.66,mixed
1,8,20,study,HILARY DUFF,104,1,mixed,cel,4.0,0.758,mixed
1,8,21,study,MERYL STREEP,177,1,mixed,cel,3.0,0.617,mixed
1,8,22,study,HALLE BERRY,100,1,mixed,cel,4.0,0.6679999999999999,mixed
1,8,23,study,ANDRE AGASSI,12,1,mixed,cel,4.0,0.6970000000000001,mixed
1,8,24,study,DAVID BECKHAM,69,1,mixed,cel,4.0,0.9079999999999999,mixed
1,8,1,recall,DAVID BECKHAM,69,1,mixed,cel,4.0,0.9079999999999999,mixed
1,8,2,recall,ANDRE AGASSI,12,1,mixed,cel,4.0,0.6970000000000001,mixed
1,8,3,recall,HILARY DUFF,104,1,mixed,cel,4.0,0.758,mixed
1,8,4,recall,HALLE BERRY,100,1,mixed,cel,4.0,0.6679999999999999,mixed
1,8,5,recall,YOSEMITE,510,1,mixed,loc,3.0,0.58,mixed
1,8,6,recall,PHILADELPHIA ART MUSEUM,421,1,mixed,loc,2.0,1.122,mixed
1,8,7,recall,WHIP,762,1,mixed,obj,3.0,1.0190000000000001,mixed
1,8,8,recall,KNIFE,628,1,mixed,obj,3.0,0.875,mixed
1,8,9,recall,MOUNT EVEREST,393,1,mixed,loc,4.0,0.847,mixed
1,8,10,recall,WIMBLEDON,502,1,mixed,loc,3.0,0.5479999999999999,mixed
1,8,11,recall,MERYL STREEP,177,1,mixed,cel,3.0,0.617,mixed
1,9,1,study,SMITHSONIAN CASTLE,455,1,mixed,loc,3.0,1.463,mixed
1,9,2,study,SKYDOME,454,1,mixed,loc,3.0,0.726,mixed
1,9,3,study,UMBRELLA,749,1,mixed,obj,4.0,0.618,mixed
1,9,4,study,DEODORANT,571,1,mixed,obj,3.0,0.498,mixed
1,9,5,study,BENJAMIN FRANKLIN,27,1,mixed,cel,2.0,0.542,mixed
1,9,6,study,DAN RATHER,65,1,mixed,cel,3.0,0.634,mixed
1,9,7,study,VIENNA,492,1,mixed,loc,3.0,0.7509999999999999,mixed
1,9,8,study,PLACE DE LA CONCORDE,424,1,mixed,loc,3.0,0.705,mixed
1,9,9,study,GREAT SALT LAKE,338,1,mixed,loc,2.0,0.716,mixed
1,9,10,study,SIENA,451,1,mixed,loc,3.0,0.579,mixed
1,9,11,study,GLOBE,597,1,mixed,obj,3.0,0.6809999999999999,mixed
1,9,12,study,IPOD,618,1,mixed,obj,4.0,0.9079999999999999,mixed
1,9,13,study,VEST,753,1,mixed,obj,4.0,0.682,mixed
1,9,14,study,BOWLING BALL,543,1,mixed,obj,4.0,1.0959999999999999,mixed
1,9,15,study,CONDOLEEZZA RICE,61,1,mixed,cel,3.0,0.701,mixed
1,9,16,study,BRUCE SPRINGSTEEN,43,1,mixed,cel,3.0,0.708,mixed
1,9,17,study,UMA THURMAN,246,1,mixed,cel,4.0,0.721,mixed
1,9,18,study,DAVID HASSELHOFF,71,1,mixed,cel,2.0,0.7190000000000001,mixed
1,9,19,study,SPORK,717,1,mixed,obj,3.0,0.626,mixed
1,9,20,study,GRILL,602,1,mixed,obj,4.0,0.737,mixed
1,9,21,study,LONDON EYE,371,1,mixed,loc,3.0,0.591,mixed
1,9,22,study,SAHARA,440,1,mixed,loc,3.0,0.56,mixed
1,9,23,study,MICHAEL DOUGLAS,178,1,mixed,cel,3.0,0.7090000000000001,mixed
1,9,24,study,ROSEANNE BARR,221,1,mixed,cel,2.0,0.833,mixed
1,9,1,recall,ROSEANNE BARR,221,1,mixed,cel,2.0,0.833,mixed
1,9,2,recall,MICHAEL DOUGLAS,178,1,mixed,cel,3.0,0.7090000000000001,mixed
1,9,3,recall,SAHARA,440,1,mixed,loc,3.0,0.56,mixed
1,9,4,recall,SIENA,451,1,mixed,loc,3.0,0.579,mixed
1,9,5,recall,VIENNA,492,1,mixed,loc,3.0,0.7509999999999999,mixed
1,9,6,recall,BRUCE SPRINGSTEEN,43,1,mixed,cel,3.0,0.708,mixed
1,9,7,recall,CONDOLEEZZA RICE,61,1,mixed,cel,3.0,0.701,mixed
1,9,8,recall,BOWLING BALL,543,1,mixed,obj,4.0,1.0959999999999999,mixed
1,9,9,recall,VEST,753,1,mixed,obj,4.0,0.682,mixed
1,9,10,recall,UMA THURMAN,246,1,mixed,cel,4.0,0.721,mixed
1,9,11,recall,ROSEANNE BARR,221,1,mixed,cel,2.0,0.833,mixed
1,9,12,recall,MICHAEL DOUGLAS,178,1,mixed,cel,3.0,0.7090000000000001,mixed
1,9,13,recall,DAN RATHER,65,1,mixed,cel,3.0,0.634,mixed
1,10,1,study,ANTHONY HOPKINS,15,1,mixed,cel,4.0,0.792,mixed
1,10,2,study,ALEC BALDWIN,6,1,mixed,cel,4.0,0.857,mixed
1,10,3,study,JACK BLACK,109,1,mixed,cel,3.0,0.8009999999999999,mixed
1,10,4,study,THE VENETIAN,475,1,mixed,loc,4.0,0.9490000000000001,mixed
1,10,5,study,GLOBE THEATER,330,1,mixed,loc,2.0,0.7490000000000001,mixed
1,10,6,study,NEST,659,1,mixed,obj,1.0,1.485,mixed
1,10,7,study,STAPLE REMOVER,720,1,mixed,obj,3.0,1.1059999999999999,mixed
1,10,8,study,GOBLET,600,1,mixed,obj,2.0,0.779,mixed
1,10,9,study,FLORENCE,321,1,mixed,loc,3.0,0.847,mixed
1,10,10,study,BARCELONA CATHEDRAL,271,1,mixed,loc,4.0,0.805,mixed
1,10,11,study,GEORGE W BUSH,94,1,mixed,cel,3.0,0.6709999999999999,mixed
1,10,12,study,QUEEN ELIZABETH,205,1,mixed,cel,3.0,1.1320000000000001,mixed
1,10,13,study,MATT DAMON,173,1,mixed,cel,4.0,0.727,mixed
1,10,14,study,TWEEZERS,747,1,mixed,obj,2.0,0.5720000000000001,mixed
1,10,15,study,HIGHLIGHTER,612,1,mixed,obj,4.0,0.9279999999999999,mixed
1,10,16,study,VASE,752,1,mixed,obj,3.0,0.675,mixed
1,10,17,study,WALL STREET,496,1,mixed,loc,3.0,0.578,mixed
1,10,18,study,HOLLYWOOD,344,1,mixed,loc,4.0,0.75,mixed
1,10,19,study,KYOTO,361,1,mixed,loc,3.0,0.47100000000000003,mixed
1,10,20,study,WRIGLEY BUILDING,506,1,mixed,loc,4.0,0.569,mixed
1,10,21,study,PEPPER,669,1,mixed,obj,2.0,0.541,mixed
1,10,22,study,BOTTLE,541,1,mixed,obj,3.0,0.515,mixed
1,10,23,study,DOLLY PARTON,78,1,mixed,cel,4.0,0.601,mixed
1,10,24,study,BILL MAHER,31,1,mixed,cel,2.0,0.44799999999999995,mixed
1,10,1,recall,BILL MAHER,31,1,mixed,cel,2.0,0.44799999999999995,mixed
1,10,2,recall,DOLLY PARTON,78,1,mixed,cel,4.0,0.601,mixed
1,10,3,recall,MARTIN SHEEN,-2,1,mixed,,,,mixed
1,10,4,recall,MATT DAMON,173,1,mixed,cel,4.0,0.727,mixed
1,10,5,recall,THE VENETIAN,475,1,mixed,loc,4.0,0.9490000000000001,mixed
1,10,6,recall,STAPLE REMOVER,720,1,mixed,obj,3.0,1.1059999999999999,mixed
1,10,7,recall,HIGHLIGHTER,612,1,mixed,obj,4.0,0.9279999999999999,mixed
1,10,8,recall,UMBRELLA,749,1,mixed,obj,4.0,0.618,mixed
1,11,1,study,FRIDGE,592,1,mixed,obj,4.0,0.9940000000000001,mixed
1,11,2,study,GAS MASK,594,1,mixed,obj,1.0,1.109,mixed
1,11,3,study,PENCIL SHARPENER,666,1,mixed,obj,3.0,0.701,mixed
1,11,4,study,AXE,518,1,mixed,obj,1.0,0.976,mixed
1,11,5,study,PHILADELPHIA CITY HALL,422,1,mixed,loc,2.0,1.204,mixed
1,11,6,study,LENIN MAUSOLEUM,363,1,mixed,loc,2.0,0.7959999999999999,mixed
1,11,7,study,PETRONAS TOWERS,420,1,mixed,loc,3.0,0.638,mixed
1,11,8,study,MATTHEW PERRY,174,1,mixed,cel,4.0,0.866,mixed
1,11,9,study,RICHARD NIXON,212,1,mixed,cel,3.0,0.6,mixed
1,11,10,study,ACADIA PARK,257,1,mixed,loc,4.0,0.736,mixed
1,11,11,study,CAMDEN YARDS,285,1,mixed,loc,2.0,0.486,mixed
1,11,12,study,ATOMIUM,269,1,mixed,loc,3.0,0.467,mixed
1,11,13,study,TAJ MAHAL,473,1,mixed,loc,4.0,0.6759999999999999,mixed
1,11,14,study,POMPEI,426,1,mixed,loc,3.0,0.696,mixed
1,11,15,study,DEMI MOORE,74,1,mixed,cel,4.0,0.67,mixed
1,11,16,study,CARROT TOP,46,1,mixed,cel,3.0,0.531,mixed
1,11,17,study,STEVE MARTIN,233,1,mixed,cel,3.0,0.568,mixed
1,11,18,study,JOHN TRAVOLTA,139,1,mixed,cel,4.0,0.746,mixed
1,11,19,study,RICKY MARTIN,214,1,mixed,cel,4.0,0.674,mixed
1,11,20,study,MARTIN LUTHER KING JR,172,1,mixed,cel,3.0,0.486,mixed
1,11,21,study,CANDLE,556,1,mixed,obj,2.0,0.7609999999999999,mixed
1,11,22,study,HAT,609,1,mixed,obj,3.0,0.758,mixed
1,11,23,study,BED,532,1,mixed,obj,4.0,0.649,mixed
1,11,24,study,NEWSPAPER,660,1,mixed,obj,3.0,0.606,mixed
1,11,1,recall,NEWSPAPER,660,1,mixed,obj,3.0,0.606,mixed
1,11,2,recall,FRIDGE,592,1,mixed,obj,4.0,0.9940000000000001,mixed
1,11,3,recall,PENCIL SHARPENER,666,1,mixed,obj,3.0,0.701,mixed
1,11,4,recall,DEMI MOORE,74,1,mixed,cel,4.0,0.67,mixed
1,11,5,recall,JOHN TRAVOLTA,139,1,mixed,cel,4.0,0.746,mixed
1,11,6,recall,STEVE MARTIN,233,1,mixed,cel,3.0,0.568,mixed
1,11,7,recall,RICHARD NIXON,212,1,mixed,cel,3.0,0.6,mixed
1,13,1,study,NORMAN SCHWARZKOPF,193,1,mixed,cel,3.0,0.99,mixed
1,13,2,study,REESE WITHERSPOON,209,1,mixed,cel,4.0,0.9159999999999999,mixed
1,13,3,study,DRESSER,577,1,mixed,obj,2.0,0.596,mixed
1,13,4,study,COUCH,565,1,mixed,obj,3.0,0.638,mixed
1,13,5,study,TENT,732,1,mixed,obj,1.0,1.14,mixed
1,13,6,study,BOWL,544,1,mixed,obj,4.0,0.9690000000000001,mixed
1,13,7,study,REDWOOD FOREST,432,1,mixed,loc,1.0,1.172,mixed
1,13,8,study,PACIFIC BELL PARK,411,1,mixed,loc,3.0,0.578,mixed
1,13,9,study,EMPIRE STATE BUILDING,315,1,mixed,loc,4.0,1.0,mixed
1,13,10,study,MONTICELLO,389,1,mixed,loc,2.0,0.894,mixed
1,13,11,study,TOBEY MAGUIRE,241,1,mixed,cel,4.0,0.8440000000000001,mixed
1,13,12,study,JIM BELUSHI,124,1,mixed,cel,3.0,0.706,mixed
1,13,13,study,JOHN LITHGOW,137,1,mixed,cel,3.0,0.7909999999999999,mixed
1,13,14,study,MICK JAGGER,182,1,mixed,cel,3.0,0.741,mixed
1,13,15,study,TINA TURNER,240,1,mixed,cel,3.0,0.6509999999999999,mixed
1,13,16,study,WILL FERRELL,252,1,mixed,cel,2.0,0.44,mixed
1,13,17,study,TIRE,736,1,mixed,obj,3.0,0.731,mixed
1,13,18,study,HANDLE,607,1,mixed,obj,3.0,0.983,mixed
1,13,19,study,MICROCHIP,649,1,mixed,obj,4.0,0.878,mixed
1,13,20,study,BUGLE,550,1,mixed,obj,1.0,0.875,mixed
1,13,21,study,OAHU BEACH,406,1,mixed,loc,4.0,0.9790000000000001,mixed
1,13,22,study,DOME OF THE ROCK,312,1,mixed,loc,3.0,0.764,mixed
1,13,23,study,GRAND TETON PARK,336,1,mixed,loc,3.0,0.955,mixed
1,13,24,study,ETHIOPIAN CHURCH,317,1,mixed,loc,2.0,0.843,mixed
1,13,1,recall,ETHIOPIAN CHURCH,317,1,mixed,loc,2.0,0.843,mixed
1,13,2,recall,REESE WITHERSPOON,209,1,mixed,cel,4.0,0.9159999999999999,mixed
1,13,3,recall,REDWOOD FOREST,432,1,mixed,loc,1.0,1.172,mixed
1,13,4,recall,MICK JAGGER,182,1,mixed,cel,3.0,0.741,mixed
1,13,5,recall,TOBEY MAGUIRE,241,1,mixed,cel,4.0,0.8440000000000001,mixed
1,13,6,recall,BOWL,544,1,mixed,obj,4.0,0.9690000000000001,mixed
1,13,7,recall,DRESSER,577,1,mixed,obj,2.0,0.596,mixed
1,13,8,recall,COUCH,565,1,mixed,obj,3.0,0.638,mixed
1,13,9,recall,TINA TURNER,240,1,mixed,cel,3.0,0.6509999999999999,mixed
1,16,1,study,KAUFMAN STADIUM,355,1,mixed,loc,2.0,0.862,mixed
1,16,2,study,ROCK AND ROLL HALL OF FAME,434,1,mixed,loc,3.0,0.825,mixed
1,16,3,study,LUXOR HOTEL,374,1,mixed,loc,2.0,0.65,mixed
1,16,4,study,TRIPOD,744,1,mixed,obj,3.0,0.5770000000000001,mixed
1,16,5,study,SAUCEPAN,697,1,mixed,obj,4.0,0.6990000000000001,mixed
1,16,6,study,MAILBOX,644,1,mixed,obj,4.0,0.691,mixed
1,16,7,study,MICHAEL JORDAN,180,1,mixed,cel,4.0,0.772,mixed
1,16,8,study,DUSTIN HOFFMAN,82,1,mixed,cel,4.0,0.894,mixed
1,16,9,study,CONAN O'BRIEN,60,1,mixed,cel,2.0,0.716,mixed
1,16,10,study,JEANS,621,1,mixed,obj,3.0,0.67,mixed
1,16,11,study,SWORD,727,1,mixed,obj,1.0,1.137,mixed
1,16,12,study,COLIN POWELL,59,1,mixed,cel,4.0,0.785,mixed
1,16,13,study,ALLEN IVERSON,10,1,mixed,cel,3.0,0.8590000000000001,mixed
1,16,14,study,JOHN HANCOCK CENTER,354,1,mixed,loc,4.0,0.7929999999999999,mixed
1,16,15,study,PENTAGON,417,1,mixed,loc,2.0,0.642,mixed
1,16,16,study,STEVEN SPIELBERG,234,1,mixed,cel,3.0,0.606,mixed
1,16,17,study,MEL GIBSON,176,1,mixed,cel,4.0,0.8420000000000001,mixed
1,16,18,study,JACKIE KENNEDY,112,1,mixed,cel,4.0,0.826,mixed
1,16,19,study,THERMOMETER,733,1,mixed,obj,3.0,0.665,mixed
1,16,20,study,RING,690,1,mixed,obj,4.0,0.633,mixed
1,16,21,study,WAFFLE,755,1,mixed,obj,4.0,0.74,mixed
1,16,22,study,SUEZ CANAL,467,1,mixed,loc,4.0,0.7070000000000001,mixed
1,16,23,study,AYERS ROCK,270,1,mixed,loc,2.0,0.8270000000000001,mixed
1,16,24,study,CN TOWER,302,1,mixed,loc,3.0,0.887,mixed
1,16,1,recall,CN TOWER,302,1,mixed,loc,3.0,0.887,mixed
1,16,2,recall,SUEZ CANAL,467,1,mixed,loc,4.0,0.7070000000000001,mixed
1,16,3,recall,MICHAEL JORDAN,180,1,mixed,cel,4.0,0.772,mixed
1,16,4,recall,JOHN HANCOCK CENTER,354,1,mixed,loc,4.0,0.7929999999999999,mixed
1,16,5,recall,LUXOR HOTEL,374,1,mixed,loc,2.0,0.65,mixed
1,17,1,study,LINCOLN FINANCIAL FIELD,368,2,mixed,loc,3.0,1.031,mixed
1,17,2,study,MAMMOTH CAVE,378,2,mixed,loc,3.0,1.072,mixed
1,17,3,study,MOUNT BLANC,392,2,mixed,loc,3.0,0.726,mixed
1,17,4,study,QUINCY MARKET,431,2,mixed,loc,2.0,0.71,mixed
1,17,5,study,KEYS,626,2,mixed,obj,4.0,1.2429999999999999,mixed
1,17,6,study,WATER GUN,759,2,mixed,obj,3.0,0.763,mixed
1,17,7,study,HIGH CHAIR,611,2,mixed,obj,2.0,1.1320000000000001,mixed
1,17,8,study,APPLE,515,2,mixed,obj,4.0,0.851,mixed
1,17,9,study,REESE WITHERSPOON,209,2,mixed,cel,4.0,1.182,mixed
1,17,10,study,HUGH GRANT,107,2,mixed,cel,4.0,0.6990000000000001,mixed
1,17,11,study,JIMI HENDRIX,127,2,mixed,cel,2.0,1.085,mixed
1,17,12,study,LANCE ARMSTRONG,157,2,mixed,cel,3.0,0.89,mixed
1,17,13,study,ARUBA,267,2,mixed,loc,4.0,0.9109999999999999,mixed
1,17,14,study,NEWGRANGE,402,2,mixed,loc,2.0,0.9390000000000001,mixed
1,17,15,study,GRAND OLE OPRY,335,2,mixed,loc,2.0,0.9009999999999999,mixed
1,17,16,study,FISHERMAN'S WHARF,320,2,mixed,loc,2.0,0.732,mixed
1,17,17,study,RAZOR,686,2,mixed,obj,3.0,1.08,mixed
1,17,18,study,NEWSPAPER,660,2,mixed,obj,4.0,0.971,mixed
1,17,19,study,ICE,614,2,mixed,obj,4.0,0.838,mixed
1,17,20,study,ALLENWRENCH,513,2,mixed,obj,2.0,1.041,mixed
1,17,21,study,MIKE MYERS,183,2,mixed,cel,3.0,0.769,mixed
1,17,22,study,DEBRA MESSING,73,2,mixed,cel,3.0,0.8640000000000001,mixed
1,17,23,study,JOHN TRAVOLTA,139,2,mixed,cel,2.0,0.892,mixed
1,17,24,study,HALEY JOEL OSMENT,99,2,mixed,cel,3.0,0.7879999999999999,mixed
1,17,1,recall,HALEY JOEL OSMENT,99,2,mixed,cel,3.0,0.7879999999999999,mixed
1,17,2,recall,DEBRA MESSING,73,2,mixed,cel,3.0,0.8640000000000001,mixed
1,17,3,recall,REESE WITHERSPOON,209,2,mixed,cel,4.0,1.182,mixed
1,17,4,recall,HUGH GRANT,107,2,mixed,cel,4.0,0.6990000000000001,mixed
1,17,5,recall,JOHN TRAVOLTA,139,2,mixed,cel,2.0,0.892,mixed
1,17,6,recall,ICE,614,2,mixed,obj,4.0,0.838,mixed
1,17,7,recall,NEWSPAPER,660,2,mixed,obj,4.0,0.971,mixed
1,17,8,recall,WATER GUN,759,2,mixed,obj,3.0,0.763,mixed
1,17,9,recall,KEYS,626,2,mixed,obj,4.0,1.2429999999999999,mixed
1,17,10,recall,FISHERMAN'S WHARF,320,2,mixed,loc,2.0,0.732,mixed
1,17,11,recall,GRAND OLE OPRY,335,2,mixed,loc,2.0,0.9009999999999999,mixed
1,17,12,recall,ARUBA,267,2,mixed,loc,4.0,0.9109999999999999,mixed
1,19,1,study,DWIGHT EISENHOWER,83,2,mixed,cel,2.0,0.883,mixed
1,19,2,study,JAMIE FOXX,114,2,mixed,cel,3.0,0.747,mixed
1,19,3,study,DREW BARRYMORE,81,2,mixed,cel,3.0,0.8079999999999999,mixed
1,19,4,study,CHRISTOPHER REEVE,54,2,mixed,cel,3.0,0.8140000000000001,mixed
1,19,5,study,WAILING WALL,494,2,mixed,loc,2.0,0.767,mixed
1,19,6,study,TREVI FOUNTAIN,483,2,mixed,loc,2.0,0.871,mixed
1,19,7,study,VIOLIN,754,2,mixed,obj,3.0,0.82,mixed
1,19,8,study,LIGHTER,641,2,mixed,obj,2.0,1.199,mixed
1,19,9,study,CANOE,557,2,mixed,obj,2.0,0.647,mixed
1,19,10,study,JACKET,619,2,mixed,obj,3.0,0.809,mixed
1,19,11,study,DRESSER,577,2,mixed,obj,4.0,0.792,mixed
1,19,12,study,SARAH JESSICA PARKER,225,2,mixed,cel,4.0,0.745,mixed
1,19,13,study,ALLEN IVERSON,10,2,mixed,cel,3.0,0.8590000000000001,mixed
1,19,14,study,ANTHONY HOPKINS,15,2,mixed,cel,3.0,1.075,mixed
1,19,15,study,ANNETTE BENING,14,2,mixed,cel,3.0,0.846,mixed
1,19,16,study,TAJ MAHAL,473,2,mixed,loc,4.0,0.8909999999999999,mixed
1,19,17,study,IWO JIMA MEMORIAL,351,2,mixed,loc,2.0,1.093,mixed
1,19,18,study,PANAMA CANAL,412,2,mixed,loc,3.0,0.878,mixed
1,19,19,study,PETRIFIED FOREST,419,2,mixed,loc,2.0,0.9740000000000001,mixed
1,19,20,study,TIMBUKTU,476,2,mixed,loc,2.0,0.7609999999999999,mixed
1,19,21,study,PACIFIC BELL PARK,411,2,mixed,loc,2.0,0.9209999999999999,mixed
1,19,22,study,BOOK,540,2,mixed,obj,3.0,0.95,mixed
1,19,23,study,SHAMPOO,703,2,mixed,obj,2.0,0.518,mixed
1,19,24,study,PILL,676,2,mixed,obj,3.0,0.725,mixed
1,19,1,recall,SHAMPOO,703,2,mixed,obj,2.0,0.518,mixed
1,19,2,recall,PILL,676,2,mixed,obj,3.0,0.725,mixed
1,19,3,recall,DRESSER,577,2,mixed,obj,4.0,0.792,mixed
1,19,4,recall,ANNETTE BENING,14,2,mixed,cel,3.0,0.846,mixed
1,19,5,recall,ANTHONY HOPKINS,15,2,mixed,cel,3.0,1.075,mixed
1,19,6,recall,JAMIE FOXX,114,2,mixed,cel,3.0,0.747,mixed
1,19,7,recall,SARAH JESSICA PARKER,225,2,mixed,cel,4.0,0.745,mixed
1,19,8,recall,DREW BARRYMORE,81,2,mixed,cel,3.0,0.8079999999999999,mixed
1,19,9,recall,DWIGHT EISENHOWER,83,2,mixed,cel,2.0,0.883,mixed
1,19,10,recall,TAJ MAHAL,473,2,mixed,loc,4.0,0.8909999999999999,mixed
1,19,11,recall,PANAMA CANAL,412,2,mixed,loc,3.0,0.878,mixed
1,19,12,recall,TIMBUKTU,476,2,mixed,loc,2.0,0.7609999999999999,mixed
1,19,13,recall,PILL,676,2,mixed,obj,3.0,0.725,mixed
1,19,14,recall,SHAMPOO,703,2,mixed,obj,2.0,0.518,mixed
1,19,15,recall,JACKET,619,2,mixed,obj,3.0,0.809,mixed
1,19,16,recall,CANOE,557,2,mixed,obj,2.0,0.647,mixed
1,19,17,recall,VIOLIN,754,2,mixed,obj,3.0,0.82,mixed
1,21,1,study,BARBARA WALTERS,22,2,mixed,cel,3.0,1.158,mixed
1,21,2,study,HULK HOGAN,108,2,mixed,cel,2.0,0.684,mixed
1,21,3,study,CHRIS FARLEY,53,2,mixed,cel,2.0,0.71,mixed
1,21,4,study,CHAIR,561,2,mixed,obj,4.0,1.011,mixed
1,21,5,study,QUARTER,683,2,mixed,obj,4.0,0.784,mixed
1,21,6,study,WALKMAN,756,2,mixed,obj,4.0,0.9229999999999999,mixed
1,21,7,study,SYDNEY OPERA HOUSE,470,2,mixed,loc,3.0,1.003,mixed
1,21,8,study,ACADIA PARK,257,2,mixed,loc,2.0,1.1520000000000001,mixed
1,21,9,study,GUM,604,2,mixed,obj,4.0,1.022,mixed
1,21,10,study,PRINTER,679,2,mixed,obj,2.0,0.7909999999999999,mixed
1,21,11,study,GRAND CANYON,333,2,mixed,loc,4.0,0.9279999999999999,mixed
1,21,12,study,ROCKEFELLER CENTER,436,2,mixed,loc,3.0,0.528,mixed
1,21,13,study,PETRA,418,2,mixed,loc,2.0,0.469,mixed
1,21,14,study,LONDON DUNGEON,370,2,mixed,loc,3.0,0.46399999999999997,mixed
1,21,15,study,SCARLETT JOHANSSON,226,2,mixed,cel,3.0,0.887,mixed
1,21,16,study,TOM HANKS,244,2,mixed,cel,3.0,0.6709999999999999,mixed
1,21,17,study,ROMAN FORUM,437,2,mixed,loc,3.0,0.682,mixed
1,21,18,study,ANGEL FALLS,263,2,mixed,loc,3.0,0.49700000000000005,mixed
1,21,19,study,FLOWERPOT,588,2,mixed,obj,3.0,0.972,mixed
1,21,20,study,THERMOMETER,733,2,mixed,obj,2.0,1.1159999999999999,mixed
1,21,21,study,PAPER BAG,663,2,mixed,obj,3.0,0.745,mixed
1,21,22,study,MEG RYAN,175,2,mixed,cel,2.0,0.7070000000000001,mixed
1,21,23,study,STEVE MARTIN,233,2,mixed,cel,4.0,0.703,mixed
1,21,24,study,JOE DIMAGGIO,132,2,mixed,cel,3.0,0.6809999999999999,mixed
1,21,1,recall,JOE DIMAGGIO,132,2,mixed,cel,3.0,0.6809999999999999,mixed
1,21,2,recall,STEVE MARTIN,233,2,mixed,cel,4.0,0.703,mixed
1,21,3,recall,TOM HANKS,244,2,mixed,cel,3.0,0.6709999999999999,mixed
1,21,4,recall,SCARLETT JOHANSSON,226,2,mixed,cel,3.0,0.887,mixed
1,21,5,recall,MEG RYAN,175,2,mixed,cel,2.0,0.7070000000000001,mixed
1,21,6,recall,PAPER BAG,663,2,mixed,obj,3.0,0.745,mixed
1,21,7,recall,THERMOMETER,733,2,mixed,obj,2.0,1.1159999999999999,mixed
1,21,8,recall,FLOWERPOT,588,2,mixed,obj,3.0,0.972,mixed
1,21,9,recall,WALKMAN,756,2,mixed,obj,4.0,0.9229999999999999,mixed
1,21,10,recall,GRAND CANYON,333,2,mixed,loc,4.0,0.9279999999999999,mixed
1,21,11,recall,SYDNEY OPERA HOUSE,470,2,mixed,loc,3.0,1.003,mixed
1,21,12,recall,LONDON DUNGEON,370,2,mixed,loc,3.0,0.46399999999999997,mixed
1,21,13,recall,PRINTER,679,2,mixed,obj,2.0,0.7909999999999999,mixed
1,22,1,study,BABE RUTH,21,2,mixed,cel,2.0,0.919,mixed
1,22,2,study,ORLANDO BLOOM,195,2,mixed,cel,3.0,0.763,mixed
1,22,3,study,BILL MAHER,31,2,mixed,cel,2.0,0.909,mixed
1,22,4,study,REGIS PHILBIN,210,2,mixed,cel,3.0,0.455,mixed
1,22,5,study,BOWLING BALL,543,2,mixed,obj,2.0,0.499,mixed
1,22,6,study,KLEENEX,627,2,mixed,obj,2.0,0.773,mixed
1,22,7,study,BUTTON,551,2,mixed,obj,3.0,0.9390000000000001,mixed
1,22,8,study,KEYCHAIN,625,2,mixed,obj,4.0,0.87,mixed
1,22,9,study,MONTICELLO,389,2,mixed,loc,2.0,0.645,mixed
1,22,10,study,BRANDENBURG GATE,278,2,mixed,loc,2.0,0.83,mixed
1,22,11,study,SEA WORLD,445,2,mixed,loc,3.0,0.66,mixed
1,22,12,study,MOUNT FUJI,394,2,mixed,loc,2.0,0.626,mixed
1,22,13,study,CHRISTOPHER WALKEN,55,2,mixed,cel,3.0,0.63,mixed
1,22,14,study,HOWARD STERN,106,2,mixed,cel,2.0,0.6659999999999999,mixed
1,22,15,study,KURT COBAIN,156,2,mixed,cel,2.0,0.705,mixed
1,22,16,study,MARTHA STEWART,171,2,mixed,cel,3.0,0.649,mixed
1,22,17,study,LIBERTY PLACE,365,2,mixed,loc,2.0,0.518,mixed
1,22,18,study,VATICAN CITY,486,2,mixed,loc,3.0,0.594,mixed
1,22,19,study,LINCOLN MEMORIAL,369,2,mixed,loc,3.0,0.848,mixed
1,22,20,study,CAPE HORN,288,2,mixed,loc,2.0,0.715,mixed
1,22,21,study,SKATEBOARD,710,2,mixed,obj,2.0,0.713,mixed
1,22,22,study,SHOWER HEAD,708,2,mixed,obj,2.0,0.687,mixed
1,22,23,study,MOUSE,657,2,mixed,obj,4.0,0.968,mixed
1,22,24,study,FIRE EXTINGUISHER,585,2,mixed,obj,3.0,0.9059999999999999,mixed
1,22,1,recall,FIRE EXTINGUISHER,585,2,mixed,obj,3.0,0.9059999999999999,mixed
1,22,2,recall,MOUSE,657,2,mixed,obj,4.0,0.968,mixed
1,22,3,recall,KURT COBAIN,156,2,mixed,cel,2.0,0.705,mixed
1,22,4,recall,REGIS PHILBIN,210,2,mixed,cel,3.0,0.455,mixed
1,22,5,recall,BILL MAHER,31,2,mixed,cel,2.0,0.909,mixed
1,22,6,recall,MARTHA STEWART,171,2,mixed,cel,3.0,0.649,mixed
1,22,7,recall,BABE RUTH,21,2,mixed,cel,2.0,0.919,mixed
1,22,8,recall,BARBARA WALTERS,22,2,mixed,cel,3.0,1.158,mixed
1,22,9,recall,BUTTON,551,2,mixed,obj,3.0,0.9390000000000001,mixed
1,22,10,recall,KLEENEX,627,2,mixed,obj,2.0,0.773,mixed
1,22,11,recall,SHOWER HEAD,708,2,mixed,obj,2.0,0.687,mixed
1,22,12,recall,VATICAN CITY,486,2,mixed,loc,3.0,0.594,mixed
1,23,1,study,JIM MORRISON,126,2,mixed,cel,2.0,0.988,mixed
1,23,2,study,HEATHER GRAHAM,102,2,mixed,cel,3.0,0.7659999999999999,mixed
1,23,3,study,COLIN POWELL,59,2,mixed,cel,2.0,0.616,mixed
1,23,4,study,URINAL,750,2,mixed,obj,2.0,0.78,mixed
1,23,5,study,BABY BIB,519,2,mixed,obj,3.0,1.0390000000000001,mixed
1,23,6,study,HOLLYWOOD,344,2,mixed,loc,4.0,0.951,mixed
1,23,7,study,LAKE TAHOE,362,2,mixed,loc,2.0,0.6779999999999999,mixed
1,23,8,study,MILLENIUM PARK,385,2,mixed,loc,3.0,0.542,mixed
1,23,9,study,GLOVES,598,2,mixed,obj,3.0,0.63,mixed
1,23,10,study,FIREPLACE,586,2,mixed,obj,2.0,0.496,mixed
1,23,11,study,KEN GRIFFEY,152,2,mixed,cel,2.0,0.623,mixed
1,23,12,study,ROBERTO BENIGNI,217,2,mixed,cel,2.0,0.9009999999999999,mixed
1,23,13,study,CARROT TOP,46,2,mixed,cel,3.0,0.821,mixed
1,23,14,study,SEVEN MILE BRIDGE,448,2,mixed,loc,4.0,0.852,mixed
1,23,15,study,BUCKINGHAM PALACE,283,2,mixed,loc,2.0,0.525,mixed
1,23,16,study,FLORENCE,321,2,mixed,loc,3.0,0.6559999999999999,mixed
1,23,17,study,MADONNA,166,2,mixed,cel,4.0,0.8240000000000001,mixed
1,23,18,study,BILLY CRYSTAL,34,2,mixed,cel,4.0,0.7490000000000001,mixed
1,23,19,study,MOUNT EVEREST,393,2,mixed,loc,2.0,0.9279999999999999,mixed
1,23,20,study,SERENGETI PLAIN,447,2,mixed,loc,3.0,0.33,mixed
1,23,21,study,PUMPKIN,681,2,mixed,obj,2.0,0.45,mixed
1,23,22,study,KNIFE,628,2,mixed,obj,2.0,0.5770000000000001,mixed
1,23,23,study,MASK,646,2,mixed,obj,2.0,1.131,mixed
1,23,24,study,CIGARETTE,562,2,mixed,obj,2.0,0.8340000000000001,mixed
1,23,1,recall,CIGARETTE,562,2,mixed,obj,2.0,0.8340000000000001,mixed
1,23,2,recall,MASK,646,2,mixed,obj,2.0,1.131,mixed
1,23,3,recall,KNIFE,628,2,mixed,obj,2.0,0.5770000000000001,mixed
1,23,4,recall,MADONNA,166,2,mixed,cel,4.0,0.8240000000000001,mixed
1,23,5,recall,HEATHER GRAHAM,102,2,mixed,cel,3.0,0.7659999999999999,mixed
1,23,6,recall,ROBERTO BENIGNI,217,2,mixed,cel,2.0,0.9009999999999999,mixed
1,23,7,recall,FLORENCE,321,2,mixed,loc,3.0,0.6559999999999999,mixed
1,23,8,recall,MOUNT EVEREST,393,2,mixed,loc,2.0,0.9279999999999999,mixed
1,23,9,recall,PUMPKIN,681,2,mixed,obj,2.0,0.45,mixed
1,23,10,recall,SEA WORLD,445,2,mixed,loc,3.0,0.66,mixed
1,27,1,study,SCARF,699,2,mixed,obj,2.0,0.601,mixed
1,27,2,study,SOCK,715,2,mixed,obj,3.0,0.618,mixed
1,27,3,study,RALPH NADER,207,2,mixed,cel,2.0,0.807,mixed
1,27,4,study,GARTH BROOKS,91,2,mixed,cel,3.0,0.708,mixed
1,27,5,study,WOOLWORTH BUILDING,504,2,mixed,loc,2.0,0.6609999999999999,mixed
1,27,6,study,MONTEGO BAY,388,2,mixed,loc,2.0,0.525,mixed
1,27,7,study,CAMERA,555,2,mixed,obj,3.0,0.5760000000000001,mixed
1,27,8,study,SPRAY PAINT,718,2,mixed,obj,2.0,0.662,mixed
1,27,9,study,ROSE,693,2,mixed,obj,3.0,0.6970000000000001,mixed
1,27,10,study,SADDLE,694,2,mixed,obj,3.0,0.879,mixed
1,27,11,study,SIERRA NEVADA,452,2,mixed,loc,2.0,0.634,mixed
1,27,12,study,ARABIAN TOWER,265,2,mixed,loc,4.0,0.851,mixed
1,27,13,study,BOURBON STREET,277,2,mixed,loc,4.0,0.861,mixed
1,27,14,study,DEAD SEA,308,2,mixed,loc,4.0,0.94,mixed
1,27,15,study,DAVID DUCHOVNY,70,2,mixed,cel,2.0,0.8240000000000001,mixed
1,27,16,study,BILL MURRAY,32,2,mixed,cel,3.0,0.382,mixed
1,27,17,study,HARRISON FORD,101,2,mixed,cel,4.0,0.556,mixed
1,27,18,study,WOLF BLITZER,255,2,mixed,cel,2.0,0.569,mixed
1,27,19,study,CROWN,568,2,mixed,obj,3.0,0.485,mixed
1,27,20,study,WHIP,762,2,mixed,obj,2.0,0.8959999999999999,mixed
1,27,21,study,BRUCE WILLIS,44,2,mixed,cel,3.0,1.083,mixed
1,27,22,study,MATT DAMON,173,2,mixed,cel,3.0,0.603,mixed
1,27,23,study,LUXOR HOTEL,374,2,mixed,loc,4.0,0.9540000000000001,mixed
1,27,24,study,HONG KONG,345,2,mixed,loc,3.0,0.789,mixed
1,27,1,recall,HONG KONG,345,2,mixed,loc,3.0,0.789,mixed
1,27,2,recall,LUXOR HOTEL,374,2,mixed,loc,4.0,0.9540000000000001,mixed
1,27,3,recall,DAVID DUCHOVNY,70,2,mixed,cel,2.0,0.8240000000000001,mixed
1,27,4,recall,BRUCE WILLIS,44,2,mixed,cel,3.0,1.083,mixed
1,27,5,recall,MATT DAMON,173,2,mixed,cel,3.0,0.603,mixed
1,27,6,recall,RALPH NADER,207,2,mixed,cel,2.0,0.807,mixed
1,27,7,recall,SOCK,715,2,mixed,obj,3.0,0.618,mixed
1,27,8,recall,SCARF,699,2,mixed,obj,2.0,0.601,mixed
1,27,9,recall,MONTEGO BAY,388,2,mixed,loc,2.0,0.525,mixed
1,27,10,recall,ARABIAN TOWER,265,2,mixed,loc,4.0,0.851,mixed
1,27,11,recall,SIERRA NEVADA,452,2,mixed,loc,2.0,0.634,mixed
1,27,12,recall,BOURBON STREET,277,2,mixed,loc,4.0,0.861,mixed
1,29,1,study,ALICIA KEYS,9,2,mixed,cel,2.0,0.672,mixed
1,29,2,study,ABRAHAM LINCOLN,0,2,mixed,cel,3.0,0.613,mixed
1,29,3,study,MOUSETRAP,656,2,mixed,obj,1.0,1.104,mixed
1,29,4,study,SINK,709,2,mixed,obj,3.0,0.895,mixed
1,29,5,study,SAHARA,440,2,mixed,loc,2.0,0.821,mixed
1,29,6,study,SHANGHAI,449,2,mixed,loc,3.0,0.76,mixed
1,29,7,study,YANKEE STADIUM,508,2,mixed,loc,2.0,0.838,mixed
1,29,8,study,INTERCOM,617,2,mixed,obj,3.0,0.603,mixed
1,29,9,study,BOLT,539,2,mixed,obj,2.0,0.5479999999999999,mixed
1,29,10,study,FOAM CUP,590,2,mixed,obj,3.0,0.598,mixed
1,29,11,study,WINDOW,764,2,mixed,obj,3.0,0.38799999999999996,mixed
1,29,12,study,DAN RATHER,65,2,mixed,cel,3.0,0.685,mixed
1,29,13,study,PETER O'TOOLE,199,2,mixed,cel,3.0,0.733,mixed
1,29,14,study,PRINCESS DIANA,203,2,mixed,cel,2.0,0.79,mixed
1,29,15,study,MICHAEL DOUGLAS,178,2,mixed,cel,2.0,0.8240000000000001,mixed
1,29,16,study,CHATEAU CHAMBORD,296,2,mixed,loc,3.0,0.628,mixed
1,29,17,study,LUXEMBOURG PALACE,373,2,mixed,loc,3.0,0.713,mixed
1,29,18,study,BASEBALL BAT,528,2,mixed,obj,2.0,0.981,mixed
1,29,19,study,BUCKET,549,2,mixed,obj,2.0,0.635,mixed
1,29,20,study,BRAD PITT,39,2,mixed,cel,3.0,0.595,mixed
1,29,21,study,BILL COSBY,29,2,mixed,cel,2.0,0.593,mixed
1,29,22,study,SMOKY MOUNTAINS,456,2,mixed,loc,3.0,0.622,mixed
1,29,23,study,CHRYSLER BUILDING,298,2,mixed,loc,2.0,0.535,mixed
1,29,24,study,LINCOLN CENTER,367,2,mixed,loc,2.0,0.54,mixed
1,29,1,recall,LINCOLN CENTER,367,2,mixed,loc,2.0,0.54,mixed
1,29,2,recall,CHRYSLER BUILDING,298,2,mixed,loc,2.0,0.535,mixed
1,29,3,recall,LUXEMBOURG PALACE,373,2,mixed,loc,3.0,0.713,mixed
1,29,4,recall,CHATEAU CHAMBORD,296,2,mixed,loc,3.0,0.628,mixed
1,29,5,recall,BILL COSBY,29,2,mixed,cel,2.0,0.593,mixed
1,29,6,recall,BRAD PITT,39,2,mixed,cel,3.0,0.595,mixed
1,29,7,recall,DAN RATHER,65,2,mixed,cel,3.0,0.685,mixed
1,29,8,recall,BASEBALL BAT,528,2,mixed,obj,2.0,0.981,mixed
1,29,9,recall,YANKEE STADIUM,508,2,mixed,loc,2.0,0.838,mixed
1,29,10,recall,BUCKET,549,2,mixed,obj,2.0,0.635,mixed
1,29,11,recall,PRINCESS DIANA,203,2,mixed,cel,2.0,0.79,mixed
1,29,12,recall,BOLT,539,2,mixed,obj,2.0,0.5479999999999999,mixed
1,30,1,study,BILLY BOB THORNTON,33,2,mixed,cel,2.0,0.856,mixed
1,30,2,study,JENNIFER LOPEZ,121,2,mixed,cel,3.0,0.5820000000000001,mixed
1,30,3,study,SAUCEPAN,697,2,mixed,obj,2.0,0.595,mixed
1,30,4,study,WATCH,758,2,mixed,obj,3.0,0.534,mixed
1,30,5,study,ST PATRICKS CATHEDRAL,463,2,mixed,loc,2.0,0.7559999999999999,mixed
1,30,6,study,CHICAGO,297,2,mixed,loc,3.0,0.721,mixed
1,30,7,study,INDEPENDENCE HALL,349,2,mixed,loc,2.0,0.565,mixed
1,30,8,study,CINDERELLA CASTLE,300,2,mixed,loc,2.0,0.536,mixed
1,30,9,study,MICROPHONE,650,2,mixed,obj,3.0,0.561,mixed
1,30,10,study,PENDULUM,667,2,mixed,obj,4.0,0.733,mixed
1,30,11,study,EARRINGS,580,2,mixed,obj,2.0,0.473,mixed
1,30,12,study,SWORD,727,2,mixed,obj,3.0,0.34700000000000003,mixed
1,30,13,study,BIRDHOUSE,536,2,mixed,obj,1.0,0.981,mixed
1,30,14,study,BRUSH,548,2,mixed,obj,1.0,0.596,mixed
1,30,15,study,LEBRON JAMES,159,2,mixed,cel,2.0,0.6920000000000001,mixed
1,30,16,study,AL PACINO,3,2,mixed,cel,2.0,0.562,mixed
1,30,17,study,BRITNEY SPEARS,40,2,mixed,cel,3.0,0.759,mixed
1,30,18,study,JIMMY CARTER,128,2,mixed,cel,2.0,0.614,mixed
1,30,19,study,AUDREY HEPBURN,19,2,mixed,cel,3.0,0.655,mixed
1,30,20,study,KEVIN SPACEY,153,2,mixed,cel,3.0,0.9159999999999999,mixed
1,30,21,study,CAMDEN YARDS,285,2,mixed,loc,2.0,0.479,mixed
1,30,22,study,TRAFALGAR SQUARE,482,2,mixed,loc,2.0,0.392,mixed
1,30,23,study,GOLDEN GATE BRIDGE,331,2,mixed,loc,2.0,0.5589999999999999,mixed
1,30,24,study,VERSAILLES,489,2,mixed,loc,3.0,0.55,mixed
1,30,1,recall,VERSAILLES,489,2,mixed,loc,3.0,0.55,mixed
1,30,2,recall,GOLDEN GATE BRIDGE,331,2,mixed,loc,2.0,0.5589999999999999,mixed
1,30,3,recall,CAMDEN YARDS,285,2,mixed,loc,2.0,0.479,mixed
1,30,4,recall,JIMMY CARTER,128,2,mixed,cel,2.0,0.614,mixed
1,30,5,recall,AUDREY HEPBURN,19,2,mixed,cel,3.0,0.655,mixed
1,30,6,recall,BRITNEY SPEARS,40,2,mixed,cel,3.0,0.759,mixed
1,30,7,recall,JENNIFER LOPEZ,121,2,mixed,cel,3.0,0.5820000000000001,mixed
1,30,8,recall,BILLY BOB THORNTON,33,2,mixed,cel,2.0,0.856,mixed
1,30,9,recall,ST PATRICKS CATHEDRAL,463,2,mixed,loc,2.0,0.7559999999999999,mixed
1,30,10,recall,BRUSH,548,2,mixed,obj,1.0,0.596,mixed
1,31,1,study,WREATH,765,2,mixed,obj,2.0,0.7609999999999999,mixed
1,31,2,study,HANDCUFFS,606,2,mixed,obj,2.0,0.654,mixed
1,31,3,study,TERRELL OWENS,238,2,mixed,cel,2.0,0.754,mixed
1,31,4,study,SNOOP DOGG,231,2,mixed,cel,2.0,0.581,mixed
1,31,5,study,GEORGE WASHINGTON BRIDGE,325,2,mixed,loc,3.0,0.728,mixed
1,31,6,study,CORCOVADO,306,2,mixed,loc,2.0,0.659,mixed
1,31,7,study,FLASK,587,2,mixed,obj,2.0,0.655,mixed
1,31,8,study,TV,746,2,mixed,obj,4.0,0.951,mixed
1,31,9,study,LAMP,631,2,mixed,obj,3.0,0.462,mixed
1,31,10,study,GAS MASK,594,2,mixed,obj,2.0,0.551,mixed
1,31,11,study,KENSINGTON PALACE,356,2,mixed,loc,1.0,0.7979999999999999,mixed
1,31,12,study,NAPA VALLEY,399,2,mixed,loc,3.0,0.569,mixed
1,31,13,study,OLYMPIA,409,2,mixed,loc,2.0,0.498,mixed
1,31,14,study,MICHAEL MOORE,181,2,mixed,cel,3.0,0.57,mixed
1,31,15,study,SIMON COWELL,230,2,mixed,cel,2.0,0.491,mixed
1,31,16,study,BOB SAGET,37,2,mixed,cel,2.0,0.7190000000000001,mixed
1,31,17,study,LEAF,635,2,mixed,obj,2.0,0.6409999999999999,mixed
1,31,18,study,ACORN,512,2,mixed,obj,3.0,0.557,mixed
1,31,19,study,TINA TURNER,240,2,mixed,cel,2.0,0.37200000000000005,mixed
1,31,20,study,MARIAH CAREY,169,2,mixed,cel,3.0,0.6809999999999999,mixed
1,31,21,study,JOHN F KENNEDY,134,2,mixed,cel,2.0,0.728,mixed
1,31,22,study,BAVARIAN CASTLE,272,2,mixed,loc,2.0,0.61,mixed
1,31,23,study,RIO DE JANEIRO,433,2,mixed,loc,3.0,0.439,mixed
1,31,24,study,SALT LAKE TEMPLE,442,2,mixed,loc,3.0,0.433,mixed
1,31,1,recall,SALT LAKE TEMPLE,442,2,mixed,loc,3.0,0.433,mixed
1,31,2,recall,RIO DE JANEIRO,433,2,mixed,loc,3.0,0.439,mixed
1,31,3,recall,JOHN F KENNEDY,134,2,mixed,cel,2.0,0.728,mixed
1,31,4,recall,MARIAH CAREY,169,2,mixed,cel,3.0,0.6809999999999999,mixed
1,31,5,recall,TINA TURNER,240,2,mixed,cel,2.0,0.37200000000000005,mixed
1,31,6,recall,ACORN,512,2,mixed,obj,3.0,0.557,mixed
1,31,7,recall,LEAF,635,2,mixed,obj,2.0,0.6409999999999999,mixed
1,31,8,recall,SINK,709,2,mixed,obj,3.0,0.895,mixed
1,32,1,study,ALEX TREBEK,8,2,mixed,cel,2.0,0.6609999999999999,mixed
1,32,2,study,DOLLY PARTON,78,2,mixed,cel,3.0,0.5579999999999999,mixed
1,32,3,study,DEMI MOORE,74,2,mixed,cel,2.0,0.495,mixed
1,32,4,study,JACK BLACK,109,2,mixed,cel,2.0,0.77,mixed
1,32,5,study,BILL GATES,30,2,mixed,cel,3.0,0.855,mixed
1,32,6,study,JENNE MOSQUE,353,2,mixed,loc,2.0,0.583,mixed
1,32,7,study,ALAMO,260,2,mixed,loc,3.0,0.807,mixed
1,32,8,study,AYERS ROCK,270,2,mixed,loc,2.0,0.38299999999999995,mixed
1,32,9,study,KOREAN WAR MEMORIAL,358,2,mixed,loc,1.0,0.627,mixed
1,32,10,study,MODEM,654,2,mixed,obj,2.0,0.722,mixed
1,32,11,study,PIE,674,2,mixed,obj,4.0,0.909,mixed
1,32,12,study,VASE,752,2,mixed,obj,3.0,0.495,mixed
1,32,13,study,DRILL,578,2,mixed,obj,2.0,0.664,mixed
1,32,14,study,PONT DU GARD,427,2,mixed,loc,1.0,0.823,mixed
1,32,15,study,MADISON SQUARE GARDEN,376,2,mixed,loc,2.0,0.622,mixed
1,32,16,study,BRYCE CANYON,281,2,mixed,loc,3.0,0.38,mixed
1,32,17,study,KYOTO,361,2,mixed,loc,4.0,0.696,mixed
1,32,18,study,BAYONET,531,2,mixed,obj,2.0,0.679,mixed
1,32,19,study,TOMATO,740,2,mixed,obj,3.0,0.6609999999999999,mixed
1,32,20,study,NECKLACE,658,2,mixed,obj,3.0,0.607,mixed
1,32,21,study,BOTTLE,541,2,mixed,obj,2.0,0.654,mixed
1,32,22,study,CATHERINE ZETA JONES,48,2,mixed,cel,3.0,0.535,mixed
1,32,23,study,GENE HACKMAN,92,2,mixed,cel,2.0,0.763,mixed
1,32,24,study,JOHNNY DEPP,141,2,mixed,cel,3.0,0.648,mixed
1,32,1,recall,AL PACINO,3,2,mixed,cel,2.0,0.562,mixed
1,32,2,recall,DOLLY PARTON,78,2,mixed,cel,3.0,0.5579999999999999,mixed
1,32,3,recall,CATHERINE ZETA JONES,48,2,mixed,cel,3.0,0.535,mixed
1,32,4,recall,JOHNNY DEPP,141,2,mixed,cel,3.0,0.648,mixed
1,32,5,recall,BRYCE CANYON,281,2,mixed,loc,3.0,0.38,mixed
1,32,6,recall,PIE,674,2,mixed,obj,4.0,0.909,mixed
1,32,7,recall,VASE,752,2,mixed,obj,3.0,0.495,mixed
1,32,8,recall,DEMI MOORE,74,2,mixed,cel,2.0,0.495,mixed
1,33,1,study,SWORD,727,3,mixed,obj,2.0,0.97,mixed
1,33,2,study,PUMPKIN,681,3,mixed,obj,2.0,0.9079999999999999,mixed
1,33,3,study,CROWN,568,3,mixed,obj,2.0,1.188,mixed
1,33,4,study,WINSTON CHURCHILL,254,3,mixed,cel,1.0,1.365,mixed
1,33,5,study,LIAM NEESON,161,3,mixed,cel,2.0,0.863,mixed
1,33,6,study,PICADILLY CIRCUS,423,3,mixed,loc,2.0,1.002,mixed
1,33,7,study,SISTINE CHAPEL,453,3,mixed,loc,2.0,0.684,mixed
1,33,8,study,VINCE VAUGHN,249,3,mixed,cel,2.0,1.005,mixed
1,33,9,study,BEN STILLER,25,3,mixed,cel,3.0,0.647,mixed
1,33,10,study,WILL SMITH,253,3,mixed,cel,3.0,0.792,mixed
1,33,11,study,ANNETTE BENING,14,3,mixed,cel,3.0,0.799,mixed
1,33,12,study,BOOK,540,3,mixed,obj,3.0,1.0390000000000001,mixed
1,33,13,study,TOILET SEAT,739,3,mixed,obj,4.0,0.8059999999999999,mixed
1,33,14,study,FIREPLACE,586,3,mixed,obj,3.0,0.727,mixed
1,33,15,study,MASSACHUSETS STATE HOUSE,380,3,mixed,loc,2.0,0.985,mixed
1,33,16,study,GREAT WALL OF CHINA,339,3,mixed,loc,3.0,0.9,mixed
1,33,17,study,PETRA,418,3,mixed,loc,2.0,0.789,mixed
1,33,18,study,JENNE MOSQUE,353,3,mixed,loc,3.0,0.8029999999999999,mixed
1,33,19,study,GLUE STICK,599,3,mixed,obj,2.0,0.6990000000000001,mixed
1,33,20,study,DESK,572,3,mixed,obj,3.0,0.934,mixed
1,33,21,study,WALK OF FAME,495,3,mixed,loc,3.0,1.063,mixed
1,33,22,study,WOOLWORTH BUILDING,504,3,mixed,loc,3.0,0.9990000000000001,mixed
1,33,23,study,HUGH GRANT,107,3,mixed,cel,3.0,0.838,mixed
1,33,24,study,RODNEY DANGERFIELD,219,3,mixed,cel,2.0,0.563,mixed
1,33,1,recall,RODNEY DANGERFIELD,219,3,mixed,cel,2.0,0.563,mixed
1,33,2,recall,WOOLWORTH BUILDING,504,3,mixed,loc,3.0,0.9990000000000001,mixed
1,33,3,recall,JENNE MOSQUE,353,3,mixed,loc,3.0,0.8029999999999999,mixed
1,33,4,recall,SISTINE CHAPEL,453,3,mixed,loc,2.0,0.684,mixed
1,33,5,recall,PETRA,418,3,mixed,loc,2.0,0.789,mixed
1,33,6,recall,WILL SMITH,253,3,mixed,cel,3.0,0.792,mixed
1,33,7,recall,VINCE VAUGHN,249,3,mixed,cel,2.0,1.005,mixed
1,33,8,recall,LIAM NEESON,161,3,mixed,cel,2.0,0.863,mixed
1,33,9,recall,WINSTON CHURCHILL,254,3,mixed,cel,1.0,1.365,mixed
1,33,10,recall,SWORD,727,3,mixed,obj,2.0,0.97,mixed
1,33,11,recall,CROWN,568,3,mixed,obj,2.0,1.188,mixed
1,33,12,recall,ANNETTE BENING,14,3,mixed,cel,3.0,0.799,mixed
1,33,13,recall,RODNEY DANGERFIELD,219,3,mixed,cel,2.0,0.563,mixed
1,33,14,recall,MASSACHUSETS STATE HOUSE,380,3,mixed,loc,2.0,0.985,mixed
1,33,15,recall,HUGH GRANT,107,3,mixed,cel,3.0,0.838,mixed
1,33,16,recall,DESK,572,3,mixed,obj,3.0,0.934,mixed
1,33,17,recall,FIREPLACE,586,3,mixed,obj,3.0,0.727,mixed
1,33,18,recall,TOILET SEAT,739,3,mixed,obj,4.0,0.8059999999999999,mixed
1,35,1,study,JOHN MCCAIN,138,3,mixed,cel,2.0,0.9490000000000001,mixed
1,35,2,study,DANE COOK,66,3,mixed,cel,2.0,0.737,mixed
1,35,3,study,BILL MURRAY,32,3,mixed,cel,3.0,0.7959999999999999,mixed
1,35,4,study,HANGER,608,3,mixed,obj,2.0,0.94,mixed
1,35,5,study,SINK,709,3,mixed,obj,3.0,0.773,mixed
1,35,6,study,STATUE OF LIBERTY,465,3,mixed,loc,2.0,1.127,mixed
1,35,7,study,WASHINGTON MONUMENT,497,3,mixed,loc,3.0,0.816,mixed
1,35,8,study,LIGHTER,641,3,mixed,obj,2.0,1.151,mixed
1,35,9,study,TRASH CAN,743,3,mixed,obj,4.0,0.865,mixed
1,35,10,study,SOAP,713,3,mixed,obj,3.0,0.7090000000000001,mixed
1,35,11,study,NEWSPAPER,660,3,mixed,obj,4.0,0.75,mixed
1,35,12,study,ALEC BALDWIN,6,3,mixed,cel,2.0,0.7959999999999999,mixed
1,35,13,study,CHARLIZE THERON,50,3,mixed,cel,4.0,0.86,mixed
1,35,14,study,ARUBA,267,3,mixed,loc,4.0,0.851,mixed
1,35,15,study,ALCATRAZ,261,3,mixed,loc,3.0,1.054,mixed
1,35,16,study,COVENT GARDEN,307,3,mixed,loc,2.0,0.9159999999999999,mixed
1,35,17,study,SYDNEY OPERA HOUSE,470,3,mixed,loc,4.0,0.84,mixed
1,35,18,study,DEBRA MESSING,73,3,mixed,cel,3.0,0.977,mixed
1,35,19,study,KEN GRIFFEY,152,3,mixed,cel,2.0,0.878,mixed
1,35,20,study,COURTENEY COX,62,3,mixed,cel,3.0,0.669,mixed
1,35,21,study,BELT,534,3,mixed,obj,4.0,0.7290000000000001,mixed
1,35,22,study,PADLOCK,662,3,mixed,obj,2.0,1.093,mixed
1,35,23,study,SHANGHAI,449,3,mixed,loc,3.0,0.95,mixed
1,35,24,study,BLUE MOSQUE,275,3,mixed,loc,3.0,0.8320000000000001,mixed
1,35,1,recall,BLUE MOSQUE,275,3,mixed,loc,3.0,0.8320000000000001,mixed
1,35,2,recall,SHANGHAI,449,3,mixed,loc,3.0,0.95,mixed
1,35,3,recall,COURTENEY COX,62,3,mixed,cel,3.0,0.669,mixed
1,35,4,recall,DEBRA MESSING,73,3,mixed,cel,3.0,0.977,mixed
1,35,5,recall,WASHINGTON MONUMENT,497,3,mixed,loc,3.0,0.816,mixed
1,35,6,recall,STATUE OF LIBERTY,465,3,mixed,loc,2.0,1.127,mixed
1,35,7,recall,SYDNEY OPERA HOUSE,470,3,mixed,loc,4.0,0.84,mixed
1,35,8,recall,COVENT GARDEN,307,3,mixed,loc,2.0,0.9159999999999999,mixed
1,35,9,recall,ARUBA,267,3,mixed,loc,4.0,0.851,mixed
1,35,10,recall,BILL MURRAY,32,3,mixed,cel,3.0,0.7959999999999999,mixed
1,35,11,recall,SINK,709,3,mixed,obj,3.0,0.773,mixed
1,35,12,recall,TRASH CAN,743,3,mixed,obj,4.0,0.865,mixed
1,35,13,recall,SOAP,713,3,mixed,obj,3.0,0.7090000000000001,mixed
1,35,14,recall,HANGER,608,3,mixed,obj,2.0,0.94,mixed
1,35,15,recall,CHARLIZE THERON,50,3,mixed,cel,4.0,0.86,mixed
1,35,16,recall,JOHN MCCAIN,138,3,mixed,cel,2.0,0.9490000000000001,mixed
1,35,17,recall,ALCATRAZ,261,3,mixed,loc,3.0,1.054,mixed
1,36,1,study,BELL,533,3,mixed,obj,2.0,0.884,mixed
1,36,2,study,BIRDHOUSE,536,3,mixed,obj,2.0,0.73,mixed
1,36,3,study,ZIPLOCK BAG,767,3,mixed,obj,4.0,0.899,mixed
1,36,4,study,KLEENEX,627,3,mixed,obj,4.0,0.8059999999999999,mixed
1,36,5,study,KEVIN SPACEY,153,3,mixed,cel,2.0,0.7440000000000001,mixed
1,36,6,study,TOM BROKAW,242,3,mixed,cel,2.0,0.825,mixed
1,36,7,study,DAVID DUCHOVNY,70,3,mixed,cel,2.0,0.86,mixed
1,36,8,study,WILL FERRELL,252,3,mixed,cel,2.0,0.522,mixed
1,36,9,study,POMPEI,426,3,mixed,loc,3.0,0.794,mixed
1,36,10,study,JEFFERSON MEMORIAL,352,3,mixed,loc,2.0,0.721,mixed
1,36,11,study,MADISON SQUARE GARDEN,376,3,mixed,loc,3.0,1.0390000000000001,mixed
1,36,12,study,NAPA VALLEY,399,3,mixed,loc,3.0,1.271,mixed
1,36,13,study,OXFORD,410,3,mixed,loc,3.0,0.941,mixed
1,36,14,study,CIGARETTE,562,3,mixed,obj,2.0,0.68,mixed
1,36,15,study,TEAPOT,731,3,mixed,obj,2.0,0.7120000000000001,mixed
1,36,16,study,SHOVEL,707,3,mixed,obj,2.0,0.684,mixed
1,36,17,study,GUITAR,603,3,mixed,obj,2.0,0.929,mixed
1,36,18,study,ROMAN FORUM,437,3,mixed,loc,3.0,0.7909999999999999,mixed
1,36,19,study,WINTER PALACE,503,3,mixed,loc,3.0,0.672,mixed
1,36,20,study,ALAMO,260,3,mixed,loc,3.0,0.74,mixed
1,36,21,study,ALEX RODRIGUEZ,7,3,mixed,cel,1.0,1.015,mixed
1,36,22,study,JOE DIMAGGIO,132,3,mixed,cel,1.0,1.0270000000000001,mixed
1,36,23,study,MATTHEW PERRY,174,3,mixed,cel,2.0,0.735,mixed
1,36,24,study,ROBERTO BENIGNI,217,3,mixed,cel,2.0,0.8270000000000001,mixed
1,36,1,recall,ROBERTO BENIGNI,217,3,mixed,cel,2.0,0.8270000000000001,mixed
1,36,2,recall,MATTHEW PERRY,174,3,mixed,cel,2.0,0.735,mixed
1,36,3,recall,TOM BROKAW,242,3,mixed,cel,2.0,0.825,mixed
1,36,4,recall,WILL FERRELL,252,3,mixed,cel,2.0,0.522,mixed
1,36,5,recall,KEVIN SPACEY,153,3,mixed,cel,2.0,0.7440000000000001,mixed
1,36,6,recall,ALAMO,260,3,mixed,loc,3.0,0.74,mixed
1,36,7,recall,JEFFERSON MEMORIAL,352,3,mixed,loc,2.0,0.721,mixed
1,36,8,recall,WINTER PALACE,503,3,mixed,loc,3.0,0.672,mixed
1,36,9,recall,ROMAN FORUM,437,3,mixed,loc,3.0,0.7909999999999999,mixed
1,36,10,recall,POMPEI,426,3,mixed,loc,3.0,0.794,mixed
1,36,11,recall,SHOVEL,707,3,mixed,obj,2.0,0.684,mixed
1,36,12,recall,TEAPOT,731,3,mixed,obj,2.0,0.7120000000000001,mixed
1,36,13,recall,ZIPLOCK BAG,767,3,mixed,obj,4.0,0.899,mixed
1,36,14,recall,BIRDHOUSE,536,3,mixed,obj,2.0,0.73,mixed
1,36,15,recall,BELL,533,3,mixed,obj,2.0,0.884,mixed
1,36,16,recall,DAVID DUCHOVNY,70,3,mixed,cel,2.0,0.86,mixed
1,39,1,study,JUSTIN TIMBERLAKE,146,3,mixed,cel,4.0,0.938,mixed
1,39,2,study,RENEE ZELLWEGER,211,3,mixed,cel,3.0,0.627,mixed
1,39,3,study,SAMUEL L JACKSON,224,3,mixed,cel,3.0,0.778,mixed
1,39,4,study,BILL GATES,30,3,mixed,cel,2.0,0.8059999999999999,mixed
1,39,5,study,PIERCE BROSNAN,200,3,mixed,cel,3.0,0.588,mixed
1,39,6,study,TAJ MAHAL,473,3,mixed,loc,4.0,0.754,mixed
1,39,7,study,LENIN MAUSOLEUM,363,3,mixed,loc,3.0,0.688,mixed
1,39,8,study,MOUNT KILIMANJARO,395,3,mixed,loc,2.0,1.018,mixed
1,39,9,study,BIG BEN,274,3,mixed,loc,3.0,0.5720000000000001,mixed
1,39,10,study,FAUCET,583,3,mixed,obj,4.0,0.9740000000000001,mixed
1,39,11,study,SHELF,704,3,mixed,obj,4.0,0.72,mixed
1,39,12,study,BOWLING BALL,543,3,mixed,obj,1.0,0.862,mixed
1,39,13,study,EARRINGS,580,3,mixed,obj,4.0,0.8109999999999999,mixed
1,39,14,study,AL PACINO,3,3,mixed,cel,3.0,0.83,mixed
1,39,15,study,DICK CHENEY,77,3,mixed,cel,3.0,0.662,mixed
1,39,16,study,BARBARA WALTERS,22,3,mixed,cel,3.0,0.731,mixed
1,39,17,study,HELMET,610,3,mixed,obj,1.0,1.2009999999999998,mixed
1,39,18,study,CALENDAR,554,3,mixed,obj,3.0,1.095,mixed
1,39,19,study,WHIP,762,3,mixed,obj,1.0,1.078,mixed
1,39,20,study,ROSE,693,3,mixed,obj,2.0,0.958,mixed
1,39,21,study,PARIS OPERA,414,3,mixed,loc,3.0,0.878,mixed
1,39,22,study,TREVI FOUNTAIN,483,3,mixed,loc,2.0,1.018,mixed
1,39,23,study,CAPE OF GOOD HOPE,289,3,mixed,loc,3.0,0.782,mixed
1,39,24,study,WHITE CLIFFS OF DOVER,500,3,mixed,loc,4.0,0.794,mixed
1,39,1,recall,WHITE CLIFFS OF DOVER,500,3,mixed,loc,4.0,0.794,mixed
1,39,2,recall,CAPE OF GOOD HOPE,289,3,mixed,loc,3.0,0.782,mixed
1,39,3,recall,BARBARA WALTERS,22,3,mixed,cel,3.0,0.731,mixed
1,39,4,recall,DICK CHENEY,77,3,mixed,cel,3.0,0.662,mixed
1,39,5,recall,SAMUEL L JACKSON,224,3,mixed,cel,3.0,0.778,mixed
1,39,6,recall,RENEE ZELLWEGER,211,3,mixed,cel,3.0,0.627,mixed
1,39,7,recall,AL PACINO,3,3,mixed,cel,3.0,0.83,mixed
1,39,8,recall,FAUCET,583,3,mixed,obj,4.0,0.9740000000000001,mixed
1,39,9,recall,WHIP,762,3,mixed,obj,1.0,1.078,mixed
1,39,10,recall,SHELF,704,3,mixed,obj,4.0,0.72,mixed
1,39,11,recall,EARRINGS,580,3,mixed,obj,4.0,0.8109999999999999,mixed
1,39,12,recall,TREVI FOUNTAIN,483,3,mixed,loc,2.0,1.018,mixed
1,39,13,recall,BIG BEN,274,3,mixed,loc,3.0,0.5720000000000001,mixed
1,39,14,recall,PARIS OPERA,414,3,mixed,loc,3.0,0.878,mixed
1,40,1,study,JOHNNY DEPP,141,3,mixed,cel,3.0,1.0290000000000001,mixed
1,40,2,study,LISA KUDROW,163,3,mixed,cel,3.0,0.703,mixed
1,40,3,study,CAPE CANAVERAL,287,3,mixed,loc,3.0,0.9279999999999999,mixed
1,40,4,study,INDEPENDENCE HALL,349,3,mixed,loc,2.0,1.071,mixed
1,40,5,study,PEN,668,3,mixed,obj,3.0,1.018,mixed
1,40,6,study,NEST,659,3,mixed,obj,1.0,1.0859999999999999,mixed
1,40,7,study,MARGARET THATCHER,168,3,mixed,cel,2.0,0.99,mixed
1,40,8,study,PETER O'TOOLE,199,3,mixed,cel,1.0,1.1059999999999999,mixed
1,40,9,study,SNOOP DOGG,231,3,mixed,cel,2.0,0.831,mixed
1,40,10,study,DONALD RUMSFELD,79,3,mixed,cel,2.0,0.759,mixed
1,40,11,study,SEARS TOWER,446,3,mixed,loc,3.0,0.9540000000000001,mixed
1,40,12,study,KITTY HAWK BEACH,357,3,mixed,loc,2.0,0.76,mixed
1,40,13,study,BOURBON STREET,277,3,mixed,loc,2.0,0.8590000000000001,mixed
1,40,14,study,WRIGLEY FIELD,507,3,mixed,loc,3.0,0.7340000000000001,mixed
1,40,15,study,SURGE PROTECTOR,726,3,mixed,obj,3.0,1.136,mixed
1,40,16,study,CRAYONS,567,3,mixed,obj,1.0,1.11,mixed
1,40,17,study,CRADLE,566,3,mixed,obj,1.0,0.8740000000000001,mixed
1,40,18,study,LIGHTBULB,640,3,mixed,obj,1.0,0.934,mixed
1,40,19,study,CAPITOL HILL,291,3,mixed,loc,2.0,0.653,mixed
1,40,20,study,VERSAILLES,489,3,mixed,loc,2.0,0.773,mixed
1,40,21,study,STEPHEN COLBERT,232,3,mixed,cel,2.0,0.769,mixed
1,40,22,study,SCARLETT JOHANSSON,226,3,mixed,cel,3.0,0.937,mixed
1,40,23,study,FLASK,587,3,mixed,obj,1.0,0.8420000000000001,mixed
1,40,24,study,STAPLE REMOVER,720,3,mixed,obj,3.0,0.61,mixed
1,40,1,recall,STAPLE REMOVER,720,3,mixed,obj,3.0,0.61,mixed
1,40,2,recall,FLASK,587,3,mixed,obj,1.0,0.8420000000000001,mixed
1,40,3,recall,SCARLETT JOHANSSON,226,3,mixed,cel,3.0,0.937,mixed
1,40,4,recall,DONALD RUMSFELD,79,3,mixed,cel,2.0,0.759,mixed
1,40,5,recall,STEPHEN COLBERT,232,3,mixed,cel,2.0,0.769,mixed
1,40,6,recall,VERSAILLES,489,3,mixed,loc,2.0,0.773,mixed
1,40,7,recall,KITTY HAWK BEACH,357,3,mixed,loc,2.0,0.76,mixed
1,40,8,recall,STAPLE REMOVER,720,3,mixed,obj,3.0,0.61,mixed
1,40,9,recall,LIGHTBULB,640,3,mixed,obj,1.0,0.934,mixed
1,40,10,recall,CRAYONS,567,3,mixed,obj,1.0,1.11,mixed
1,40,11,recall,PEN,668,3,mixed,obj,3.0,1.018,mixed
1,40,12,recall,LISA KUDROW,163,3,mixed,cel,3.0,0.703,mixed
1,40,13,recall,JOHNNY DEPP,141,3,mixed,cel,3.0,1.0290000000000001,mixed
1,40,14,recall,CAPITOL HILL,291,3,mixed,loc,2.0,0.653,mixed
1,40,15,recall,WRIGLEY FIELD,507,3,mixed,loc,3.0,0.7340000000000001,mixed
1,40,16,recall,CAPE CANAVERAL,287,3,mixed,loc,3.0,0.9279999999999999,mixed
1,40,17,recall,SURGE PROTECTOR,726,3,mixed,obj,3.0,1.136,mixed
1,43,1,study,VACUUM CLEANER,751,3,mixed,obj,4.0,0.904,mixed
1,43,2,study,THERMOMETER,733,3,mixed,obj,3.0,0.667,mixed
1,43,3,study,BUTTON,551,3,mixed,obj,3.0,0.718,mixed
1,43,4,study,JOYSTICK,622,3,mixed,obj,2.0,0.8109999999999999,mixed
1,43,5,study,LEGO,636,3,mixed,obj,3.0,0.858,mixed
1,43,6,study,WIMBLEDON,502,3,mixed,loc,3.0,1.043,mixed
1,43,7,study,MOUNT BLANC,392,3,mixed,loc,3.0,0.855,mixed
1,43,8,study,JESSICA SIMPSON,123,3,mixed,cel,3.0,0.703,mixed
1,43,9,study,EMINEM,86,3,mixed,cel,3.0,0.754,mixed
1,43,10,study,ALBERT EINSTEIN,5,3,mixed,cel,3.0,0.805,mixed
1,43,11,study,JACQUES CHIRAC,113,3,mixed,cel,2.0,0.8170000000000001,mixed
1,43,12,study,SARAH JESSICA PARKER,225,3,mixed,cel,3.0,0.7390000000000001,mixed
1,43,13,study,BRYCE CANYON,281,3,mixed,loc,3.0,0.7959999999999999,mixed
1,43,14,study,BELLAGIO FOUNTAINS,273,3,mixed,loc,4.0,1.083,mixed
1,43,15,study,GETTYSBURG,326,3,mixed,loc,3.0,0.7559999999999999,mixed
1,43,16,study,SAN FRANCISCO,444,3,mixed,loc,2.0,0.508,mixed
1,43,17,study,MECCA,382,3,mixed,loc,3.0,0.537,mixed
1,43,18,study,ST MARKS BASILICA,462,3,mixed,loc,2.0,0.526,mixed
1,43,19,study,LEBRON JAMES,159,3,mixed,cel,3.0,0.767,mixed
1,43,20,study,CHRISTOPHER REEVE,54,3,mixed,cel,2.0,0.779,mixed
1,43,21,study,BILL CLINTON,28,3,mixed,cel,3.0,0.899,mixed
1,43,22,study,JEANS,621,3,mixed,obj,3.0,0.92,mixed
1,43,23,study,TWEEZERS,747,3,mixed,obj,2.0,0.973,mixed
1,43,24,study,PILL,676,3,mixed,obj,4.0,1.093,mixed
1,43,1,recall,PILL,676,3,mixed,obj,4.0,1.093,mixed
1,43,2,recall,TWEEZERS,747,3,mixed,obj,2.0,0.973,mixed
1,43,3,recall,BILL CLINTON,28,3,mixed,cel,3.0,0.899,mixed
1,43,4,recall,LEBRON JAMES,159,3,mixed,cel,3.0,0.767,mixed
1,43,5,recall,BUTTON,551,3,mixed,obj,3.0,0.718,mixed
1,43,6,recall,JEANS,621,3,mixed,obj,3.0,0.92,mixed
1,43,7,recall,BRYCE CANYON,281,3,mixed,loc,3.0,0.7959999999999999,mixed
1,43,8,recall,JESSICA SIMPSON,123,3,mixed,cel,3.0,0.703,mixed
1,43,9,recall,VACUUM CLEANER,751,3,mixed,obj,4.0,0.904,mixed
1,43,10,recall,THERMOMETER,733,3,mixed,obj,3.0,0.667,mixed
1,43,11,recall,WIMBLEDON,502,3,mixed,loc,3.0,1.043,mixed
1,43,12,recall,JACQUES CHIRAC,113,3,mixed,cel,2.0,0.8170000000000001,mixed
1,44,1,study,GREAT BARRIER REEF,337,3,mixed,loc,4.0,0.883,mixed
1,44,2,study,COLOSSEUM,305,3,mixed,loc,3.0,0.8690000000000001,mixed
1,44,3,study,ACADIA PARK,257,3,mixed,loc,2.0,0.6409999999999999,mixed
1,44,4,study,SMOKY MOUNTAINS,456,3,mixed,loc,3.0,0.76,mixed
1,44,5,study,FRIDGE,592,3,mixed,obj,3.0,0.885,mixed
1,44,6,study,INHALER,615,3,mixed,obj,3.0,0.818,mixed
1,44,7,study,STEERING WHEEL,721,3,mixed,obj,2.0,0.991,mixed
1,44,8,study,JENNIFER LOPEZ,121,3,mixed,cel,4.0,0.637,mixed
1,44,9,study,BRUCE SPRINGSTEEN,43,3,mixed,cel,3.0,0.6859999999999999,mixed
1,44,10,study,LARRY KING,158,3,mixed,cel,2.0,0.637,mixed
1,44,11,study,JOAN RIVERS,129,3,mixed,cel,3.0,0.632,mixed
1,44,12,study,KOREAN WAR MEMORIAL,358,3,mixed,loc,2.0,0.69,mixed
1,44,13,study,LUXEMBOURG PALACE,373,3,mixed,loc,3.0,0.6409999999999999,mixed
1,44,14,study,NICOLAS CAGE,191,3,mixed,cel,3.0,0.625,mixed
1,44,15,study,LANCE ARMSTRONG,157,3,mixed,cel,2.0,0.679,mixed
1,44,16,study,BANDAID,523,3,mixed,obj,3.0,0.506,mixed
1,44,17,study,PEPPER,669,3,mixed,obj,3.0,0.971,mixed
1,44,18,study,THE MET,474,3,mixed,loc,4.0,0.7490000000000001,mixed
1,44,19,study,HARRODS,342,3,mixed,loc,3.0,0.685,mixed
1,44,20,study,DAVID HASSELHOFF,71,3,mixed,cel,3.0,0.831,mixed
1,44,21,study,STEVE MARTIN,233,3,mixed,cel,3.0,0.664,mixed
1,44,22,study,SHIRT,705,3,mixed,obj,2.0,0.735,mixed
1,44,23,study,HIGHLIGHTER,612,3,mixed,obj,3.0,0.762,mixed
1,44,24,study,RAKE,685,3,mixed,obj,1.0,0.893,mixed
1,44,1,recall,RAKE,685,3,mixed,obj,1.0,0.893,mixed
1,44,2,recall,DAVID HASSELHOFF,71,3,mixed,cel,3.0,0.831,mixed
1,44,3,recall,STEVE MARTIN,233,3,mixed,cel,3.0,0.664,mixed
1,44,4,recall,SHIRT,705,3,mixed,obj,2.0,0.735,mixed
1,44,5,recall,BUTTON,551,3,mixed,obj,3.0,0.718,mixed
1,44,6,recall,HIGHLIGHTER,612,3,mixed,obj,3.0,0.762,mixed
1,44,7,recall,INHALER,615,3,mixed,obj,3.0,0.818,mixed
1,44,8,recall,THERMOMETER,733,3,mixed,obj,3.0,0.667,mixed
1,44,9,recall,STEERING WHEEL,721,3,mixed,obj,2.0,0.991,mixed
1,44,10,recall,FRIDGE,592,3,mixed,obj,3.0,0.885,mixed
1,44,11,recall,JOAN RIVERS,129,3,mixed,cel,3.0,0.632,mixed
1,46,1,study,CARLSBAD CAVERNS,292,3,mixed,loc,3.0,1.04,mixed
1,46,2,study,BUCKINGHAM FOUNTAIN,282,3,mixed,loc,2.0,0.785,mixed
1,46,3,study,MOUNT VESUVIUS,398,3,mixed,loc,3.0,0.61,mixed
1,46,4,study,ROCK OF GIBRALTAR,435,3,mixed,loc,3.0,0.826,mixed
1,46,5,study,QUEEN LATIFAH,206,3,mixed,cel,4.0,0.89,mixed
1,46,6,study,DAN RATHER,65,3,mixed,cel,3.0,0.736,mixed
1,46,7,study,STOP SIGN,724,3,mixed,obj,4.0,1.367,mixed
1,46,8,study,CHAIR,561,3,mixed,obj,3.0,0.7609999999999999,mixed
1,46,9,study,YOSEMITE,510,3,mixed,loc,4.0,1.015,mixed
1,46,10,study,JOHN HANCOCK CENTER,354,3,mixed,loc,3.0,0.799,mixed
1,46,11,study,GRAND CANYON,333,3,mixed,loc,3.0,0.745,mixed
1,46,12,study,LONDON DUNGEON,370,3,mixed,loc,2.0,0.816,mixed
1,46,13,study,YARN,766,3,mixed,obj,2.0,1.053,mixed
1,46,14,study,PAPER BAG,663,3,mixed,obj,3.0,0.8220000000000001,mixed
1,46,15,study,UKELELE,748,3,mixed,obj,2.0,0.715,mixed
1,46,16,study,LENS,638,3,mixed,obj,2.0,0.828,mixed
1,46,17,study,KETCHUP,623,3,mixed,obj,3.0,0.52,mixed
1,46,18,study,WINDOW,764,3,mixed,obj,2.0,0.534,mixed
1,46,19,study,COLIN FARRELL,58,3,mixed,cel,3.0,0.6859999999999999,mixed
1,46,20,study,REESE WITHERSPOON,209,3,mixed,cel,3.0,0.765,mixed
1,46,21,study,MATT DAMON,173,3,mixed,cel,3.0,0.522,mixed
1,46,22,study,ANTONIO BANDERAS,16,3,mixed,cel,4.0,1.02,mixed
1,46,23,study,NELSON MANDELA,189,3,mixed,cel,3.0,0.743,mixed
1,46,24,study,MEL GIBSON,176,3,mixed,cel,3.0,0.8909999999999999,mixed
1,46,1,recall,MEL GIBSON,176,3,mixed,cel,3.0,0.8909999999999999,mixed
1,46,2,recall,NELSON MANDELA,189,3,mixed,cel,3.0,0.743,mixed
1,46,3,recall,REESE WITHERSPOON,209,3,mixed,cel,3.0,0.765,mixed
1,46,4,recall,MATT DAMON,173,3,mixed,cel,3.0,0.522,mixed
1,46,5,recall,ANTONIO BANDERAS,16,3,mixed,cel,4.0,1.02,mixed
1,46,6,recall,DAN RATHER,65,3,mixed,cel,3.0,0.736,mixed
1,46,7,recall,QUEEN LATIFAH,206,3,mixed,cel,4.0,0.89,mixed
1,46,8,recall,MOUNT VESUVIUS,398,3,mixed,loc,3.0,0.61,mixed
1,46,9,recall,YOSEMITE,510,3,mixed,loc,4.0,1.015,mixed
1,46,10,recall,ROCK OF GIBRALTAR,435,3,mixed,loc,3.0,0.826,mixed
1,46,11,recall,LONDON DUNGEON,370,3,mixed,loc,2.0,0.816,mixed
1,46,12,recall,BUCKINGHAM PALACE,283,3,mixed,,,,mixed
1,46,13,recall,BUCKINGHAM FOUNTAIN,282,3,mixed,loc,2.0,0.785,mixed
1,46,14,recall,CARLSBAD CAVERNS,292,3,mixed,loc,3.0,1.04,mixed
1,47,1,study,HAT,609,3,mixed,obj,3.0,0.79,mixed
1,47,2,study,RING,690,3,mixed,obj,4.0,0.792,mixed
1,47,3,study,PARK AVENUE,415,3,mixed,loc,3.0,0.865,mixed
1,47,4,study,ROSE BOWL,438,3,mixed,loc,3.0,0.622,mixed
1,47,5,study,LAKE TAHOE,362,3,mixed,loc,3.0,0.7979999999999999,mixed
1,47,6,study,VIENNA,492,3,mixed,loc,3.0,0.718,mixed
1,47,7,study,CAMERON DIAZ,45,3,mixed,cel,4.0,0.873,mixed
1,47,8,study,TOBEY MAGUIRE,241,3,mixed,cel,3.0,0.597,mixed
1,47,9,study,JOHN F KENNEDY,134,3,mixed,cel,4.0,0.826,mixed
1,47,10,study,JANE FONDA,115,3,mixed,cel,3.0,0.667,mixed
1,47,11,study,SERENGETI PLAIN,447,3,mixed,loc,2.0,0.7090000000000001,mixed
1,47,12,study,PONT DU GARD,427,3,mixed,loc,3.0,0.754,mixed
1,47,13,study,ALEX TREBEK,8,3,mixed,cel,3.0,0.963,mixed
1,47,14,study,COLIN POWELL,59,3,mixed,cel,3.0,0.5770000000000001,mixed
1,47,15,study,TOWEL,742,3,mixed,obj,3.0,0.8079999999999999,mixed
1,47,16,study,ALLENWRENCH,513,3,mixed,obj,3.0,0.823,mixed
1,47,17,study,ANCHOR,514,3,mixed,obj,1.0,0.9329999999999999,mixed
1,47,18,study,PRINCE WILLIAM,202,3,mixed,cel,2.0,0.758,mixed
1,47,19,study,BOB DOLE,35,3,mixed,cel,2.0,0.7070000000000001,mixed
1,47,20,study,FLOWER,589,3,mixed,obj,3.0,0.904,mixed
1,47,21,study,GARLIC,593,3,mixed,obj,3.0,0.643,mixed
1,47,22,study,TV,746,3,mixed,obj,4.0,1.008,mixed
1,47,23,study,TAHITI,472,3,mixed,loc,4.0,0.799,mixed
1,47,24,study,VERRAZANO NARROWS,488,3,mixed,loc,4.0,1.102,mixed
1,47,1,recall,VERRAZANO NARROWS,488,3,mixed,loc,4.0,1.102,mixed
1,47,2,recall,BOB DOLE,35,3,mixed,cel,2.0,0.7070000000000001,mixed
1,47,3,recall,ALEX TREBEK,8,3,mixed,cel,3.0,0.963,mixed
1,47,4,recall,COLIN POWELL,59,3,mixed,cel,3.0,0.5770000000000001,mixed
1,47,5,recall,CAMERON DIAZ,45,3,mixed,cel,4.0,0.873,mixed
1,47,6,recall,PRINCE WILLIAM,202,3,mixed,cel,2.0,0.758,mixed
1,47,7,recall,TAHITI,472,3,mixed,loc,4.0,0.799,mixed
1,48,1,study,WHISTLE,763,3,mixed,obj,2.0,0.9990000000000001,mixed
1,48,2,study,DRILL,578,3,mixed,obj,2.0,1.043,mixed
1,48,3,study,BOSTON COMMON,276,3,mixed,loc,3.0,0.7859999999999999,mixed
1,48,4,study,HOLLYWOOD,344,3,mixed,loc,3.0,0.653,mixed
1,48,5,study,OLD FAITHFUL,407,3,mixed,loc,3.0,0.618,mixed
1,48,6,study,WESTMINSTER ABBEY,499,3,mixed,loc,3.0,0.557,mixed
1,48,7,study,ELIZABETH TAYLOR,84,3,mixed,cel,2.0,0.47700000000000004,mixed
1,48,8,study,CLIVE OWEN,57,3,mixed,cel,3.0,0.441,mixed
1,48,9,study,TINA TURNER,240,3,mixed,cel,2.0,0.606,mixed
1,48,10,study,NECKLACE,658,3,mixed,obj,3.0,0.638,mixed
1,48,11,study,LEMON,637,3,mixed,obj,3.0,0.4,mixed
1,48,12,study,ACORN,512,3,mixed,obj,2.0,0.5670000000000001,mixed
1,48,13,study,COUCH,565,3,mixed,obj,3.0,1.002,mixed
1,48,14,study,WEDDING DRESS,760,3,mixed,obj,1.0,1.004,mixed
1,48,15,study,TABLE,729,3,mixed,obj,3.0,0.679,mixed
1,48,16,study,LUCY LIU,165,3,mixed,cel,4.0,0.885,mixed
1,48,17,study,ANGELINA JOLIE,13,3,mixed,cel,4.0,0.861,mixed
1,48,18,study,JACK BLACK,109,3,mixed,cel,3.0,0.653,mixed
1,48,19,study,CHARLIE SHEEN,49,3,mixed,cel,3.0,0.594,mixed
1,48,20,study,CHE GUEVARA,51,3,mixed,cel,3.0,0.6409999999999999,mixed
1,48,21,study,OAHU BEACH,406,3,mixed,loc,3.0,0.997,mixed
1,48,22,study,GATEWAY ARCH,324,3,mixed,loc,2.0,0.589,mixed
1,48,23,study,WHITE HOUSE,501,3,mixed,loc,3.0,0.733,mixed
1,48,24,study,WRIGLEY BUILDING,506,3,mixed,loc,3.0,0.495,mixed
1,48,1,recall,WRIGLEY BUILDING,506,3,mixed,loc,3.0,0.495,mixed
1,48,2,recall,WHITE HOUSE,501,3,mixed,loc,3.0,0.733,mixed
1,48,3,recall,CLIVE OWEN,57,3,mixed,cel,3.0,0.441,mixed
1,48,4,recall,ANGELINA JOLIE,13,3,mixed,cel,4.0,0.861,mixed
1,48,5,recall,LUCY LIU,165,3,mixed,cel,4.0,0.885,mixed
1,48,6,recall,GATEWAY ARCH,324,3,mixed,loc,2.0,0.589,mixed
1,48,7,recall,OAHU BEACH,406,3,mixed,loc,3.0,0.997,mixed
1,48,8,recall,HOLLYWOOD,344,3,mixed,loc,3.0,0.653,mixed
1,48,9,recall,WESTMINSTER ABBEY,499,3,mixed,loc,3.0,0.557,mixed
1,48,10,recall,ELIZABETH TAYLOR,84,3,mixed,cel,2.0,0.47700000000000004,mixed
1,48,11,recall,OLD FAITHFUL,407,3,mixed,loc,3.0,0.618,mixed
1,48,12,recall,GARLIC,593,3,mixed,obj,3.0,0.643,mixed
2,1,1,study,SHEA STADIUM,450,1,mixed,loc,4.0,1.0759999999999998,mixed
2,1,2,study,ACROPOLIS,258,1,mixed,loc,3.0,1.393,mixed
2,1,3,study,EASTER ISLAND,313,1,mixed,loc,4.0,1.229,mixed
2,1,4,study,COLOSSEUM,305,1,mixed,loc,3.0,1.3319999999999999,mixed
2,1,5,study,PHONE,672,1,mixed,obj,4.0,2.008,mixed
2,1,6,study,DICE,573,1,mixed,obj,2.0,1.845,mixed
2,1,7,study,ARMCHAIR,517,1,mixed,obj,3.0,2.036,mixed
2,1,8,study,ACORN,512,1,mixed,obj,1.0,1.653,mixed
2,1,9,study,SHOWER HEAD,708,1,mixed,obj,4.0,1.359,mixed
2,1,10,study,BENICIO DEL TORO,26,1,mixed,cel,4.0,1.976,mixed
2,1,11,study,ALEX TREBEK,8,1,mixed,cel,1.0,1.604,mixed
2,1,12,study,JACK BLACK,109,1,mixed,cel,1.0,0.983,mixed
2,1,13,study,JASON BIGGS,118,1,mixed,cel,1.0,1.182,mixed
2,1,14,study,THERMOMETER,733,1,mixed,obj,3.0,3.111,mixed
2,1,15,study,BOWLING BALL,543,1,mixed,obj,1.0,2.125,mixed
2,1,16,study,DOOR,576,1,mixed,obj,4.0,1.506,mixed
2,1,17,study,TERRELL OWENS,238,1,mixed,cel,1.0,1.5319999999999998,mixed
2,1,18,study,DREW BARRYMORE,81,1,mixed,cel,1.0,1.048,mixed
2,1,19,study,JENNIFER ANISTON,120,1,mixed,cel,1.0,0.838,mixed
2,1,20,study,RICHARD NIXON,212,1,mixed,cel,1.0,0.915,mixed
2,1,21,study,OLYMPIA,409,1,mixed,loc,3.0,2.14,mixed
2,1,22,study,ALCATRAZ,261,1,mixed,loc,1.0,1.9869999999999999,mixed
2,1,23,study,WHITE CLIFFS OF DOVER,500,1,mixed,loc,1.0,1.624,mixed
2,1,24,study,COLONIAL WILLIAMSBURG,304,1,mixed,loc,1.0,1.121,mixed
2,1,1,recall,COLONIAL WILLIAMSBURG,304,1,mixed,loc,1.0,1.121,mixed
2,1,2,recall,WHITE CLIFFS OF DOVER,500,1,mixed,loc,1.0,1.624,mixed
2,1,3,recall,RICHARD NIXON,212,1,mixed,cel,1.0,0.915,mixed
2,1,4,recall,BENICIO DEL TORO,26,1,mixed,cel,4.0,1.976,mixed
2,1,5,recall,JENNIFER ANISTON,120,1,mixed,cel,1.0,0.838,mixed
2,1,6,recall,DREW BARRYMORE,81,1,mixed,cel,1.0,1.048,mixed
2,1,7,recall,SHOWER HEAD,708,1,mixed,obj,4.0,1.359,mixed
2,1,8,recall,THERMOMETER,733,1,mixed,obj,3.0,3.111,mixed
2,1,9,recall,DOOR,576,1,mixed,obj,4.0,1.506,mixed
2,1,10,recall,ARMCHAIR,517,1,mixed,obj,3.0,2.036,mixed
2,1,11,recall,ALEX TREBEK,8,1,mixed,cel,1.0,1.604,mixed
2,1,12,recall,COLOSSEUM,305,1,mixed,loc,3.0,1.3319999999999999,mixed
2,1,13,recall,ANNAPOLIS,-2,1,mixed,,,,mixed
2,1,14,recall,ACROPOLIS,258,1,mixed,loc,3.0,1.393,mixed
2,1,15,recall,SHEA STADIUM,450,1,mixed,loc,4.0,1.0759999999999998,mixed
2,1,16,recall,EASTER ISLAND,313,1,mixed,loc,4.0,1.229,mixed
2,1,17,recall,JASON BIGGS,118,1,mixed,cel,1.0,1.182,mixed
2,1,18,recall,ACORN,512,1,mixed,obj,1.0,1.653,mixed
2,4,1,study,BOWL,544,1,mixed,obj,4.0,2.171,mixed
2,4,2,study,SWORD,727,1,mixed,obj,3.0,1.599,mixed
2,4,3,study,MASCARA,645,1,mixed,obj,3.0,1.939,mixed
2,4,4,study,TWEEZERS,747,1,mixed,obj,1.0,1.965,mixed
2,4,5,study,STONE,723,1,mixed,obj,3.0,2.1,mixed
2,4,6,study,BELT,534,1,mixed,obj,4.0,2.073,mixed
2,4,7,study,PRADO MUSEUM,428,1,mixed,loc,3.0,1.294,mixed
2,4,8,study,GRAND TETON PARK,336,1,mixed,loc,4.0,2.155,mixed
2,4,9,study,SMITHSONIAN CASTLE,455,1,mixed,loc,4.0,1.624,mixed
2,4,10,study,WAILING WALL,494,1,mixed,loc,3.0,1.271,mixed
2,4,11,study,DANNY DEVITO,67,1,mixed,cel,1.0,1.359,mixed
2,4,12,study,NORMAN SCHWARZKOPF,193,1,mixed,cel,1.0,0.8390000000000001,mixed
2,4,13,study,BRITTANY MURPHY,41,1,mixed,cel,1.0,1.129,mixed
2,4,14,study,PHILADELPHIA ART MUSEUM,421,1,mixed,loc,3.0,2.174,mixed
2,4,15,study,ANGKOR WAT,264,1,mixed,loc,4.0,1.574,mixed
2,4,16,study,NATIONAL AQUARIUM,400,1,mixed,loc,4.0,1.999,mixed
2,4,17,study,ATOMIUM,269,1,mixed,loc,4.0,1.788,mixed
2,4,18,study,JIM MORRISON,126,1,mixed,cel,3.0,2.354,mixed
2,4,19,study,JOHNNY DEPP,141,1,mixed,cel,4.0,1.128,mixed
2,4,20,study,KATE WINSLET,147,1,mixed,cel,3.0,2.252,mixed
2,4,21,study,ALICIA KEYS,9,1,mixed,cel,3.0,3.0269999999999997,mixed
2,4,22,study,BARRY BONDS,23,1,mixed,cel,1.0,1.511,mixed
2,4,23,study,MEDAL,648,1,mixed,obj,4.0,1.604,mixed
2,4,24,study,KEYS,626,1,mixed,obj,4.0,1.778,mixed
2,4,1,recall,PRADO MUSEUM,428,1,mixed,loc,3.0,1.294,mixed
2,4,2,recall,GRAND TETON PARK,336,1,mixed,loc,4.0,2.155,mixed
2,4,3,recall,SMITHSONIAN CASTLE,455,1,mixed,loc,4.0,1.624,mixed
2,4,4,recall,ANGKOR WAT,264,1,mixed,loc,4.0,1.574,mixed
2,4,5,recall,BARRY BONDS,23,1,mixed,cel,1.0,1.511,mixed
2,4,6,recall,KATE WINSLET,147,1,mixed,cel,3.0,2.252,mixed
2,4,7,recall,BRITTANY MURPHY,41,1,mixed,cel,1.0,1.129,mixed
2,4,8,recall,JOHNNY DEPP,141,1,mixed,cel,4.0,1.128,mixed
2,4,9,recall,ATOMIUM,269,1,mixed,loc,4.0,1.788,mixed
2,4,10,recall,STONE,723,1,mixed,obj,3.0,2.1,mixed
2,4,11,recall,BELT,534,1,mixed,obj,4.0,2.073,mixed
2,4,12,recall,WAILING WALL,494,1,mixed,loc,3.0,1.271,mixed
2,4,13,recall,ALICIA KEYS,9,1,mixed,cel,3.0,3.0269999999999997,mixed
2,4,14,recall,TWEEZERS,747,1,mixed,obj,1.0,1.965,mixed
2,5,1,study,CAMDEN YARDS,285,1,mixed,loc,1.0,1.892,mixed
2,5,2,study,CHRYSLER BUILDING,298,1,mixed,loc,1.0,1.931,mixed
2,5,3,study,REMOTE,688,1,mixed,obj,3.0,2.3280000000000003,mixed
2,5,4,study,ZIPLOCK BAG,767,1,mixed,obj,1.0,3.2039999999999997,mixed
2,5,5,study,TILE,735,1,mixed,obj,3.0,1.9809999999999999,mixed
2,5,6,study,WINDOW,764,1,mixed,obj,4.0,1.023,mixed
2,5,7,study,JOHN F KENNEDY,134,1,mixed,cel,4.0,2.255,mixed
2,5,8,study,JANE FONDA,115,1,mixed,cel,1.0,1.61,mixed
2,5,9,study,CAR SEAT,558,1,mixed,obj,1.0,2.281,mixed
2,5,10,study,SAFE,695,1,mixed,obj,1.0,0.992,mixed
2,5,11,study,SUSAN SARANDON,236,1,mixed,cel,1.0,1.632,mixed
2,5,12,study,UMA THURMAN,246,1,mixed,cel,3.0,2.029,mixed
2,5,13,study,ANTHONY HOPKINS,15,1,mixed,cel,4.0,1.284,mixed
2,5,14,study,HONG KONG,345,1,mixed,loc,4.0,1.06,mixed
2,5,15,study,INDEPENDENCE HALL,349,1,mixed,loc,1.0,1.547,mixed
2,5,16,study,SIERRA NEVADA,452,1,mixed,loc,4.0,1.054,mixed
2,5,17,study,MARTIN LUTHER KING JR,172,1,mixed,cel,4.0,1.028,mixed
2,5,18,study,OWEN WILSON,196,1,mixed,cel,4.0,1.57,mixed
2,5,19,study,DANE COOK,66,1,mixed,cel,1.0,1.7009999999999998,mixed
2,5,20,study,WALKMAN,756,1,mixed,obj,3.0,2.322,mixed
2,5,21,study,KEYCHAIN,625,1,mixed,obj,4.0,1.976,mixed
2,5,22,study,MGM GRAND,384,1,mixed,loc,4.0,1.27,mixed
2,5,23,study,EVERGLADES,318,1,mixed,loc,4.0,1.285,mixed
2,5,24,study,ST PAULS CATHEDRAL,464,1,mixed,loc,4.0,1.51,mixed
2,5,1,recall,ST PAULS CATHEDRAL,464,1,mixed,loc,4.0,1.51,mixed
2,5,2,recall,EVERGLADES,318,1,mixed,loc,4.0,1.285,mixed
2,5,3,recall,SIERRA NEVADA,452,1,mixed,loc,4.0,1.054,mixed
2,5,4,recall,DANE COOK,66,1,mixed,cel,1.0,1.7009999999999998,mixed
2,5,5,recall,OWEN WILSON,196,1,mixed,cel,4.0,1.57,mixed
2,5,6,recall,KEYCHAIN,625,1,mixed,obj,4.0,1.976,mixed
2,5,7,recall,ANTHONY HOPKINS,15,1,mixed,cel,4.0,1.284,mixed
2,5,8,recall,SUSAN SARANDON,236,1,mixed,cel,1.0,1.632,mixed
2,5,9,recall,JANE FONDA,115,1,mixed,cel,1.0,1.61,mixed
2,5,10,recall,UMA THURMAN,246,1,mixed,cel,3.0,2.029,mixed
2,5,11,recall,WALKMAN,756,1,mixed,obj,3.0,2.322,mixed
2,5,12,recall,KEYCHAIN,625,1,mixed,obj,4.0,1.976,mixed
2,5,13,recall,MASCARA,645,1,mixed,obj,3.0,1.939,mixed
2,5,14,recall,HONG KONG,345,1,mixed,loc,4.0,1.06,mixed
2,6,1,study,LEGO,636,1,mixed,obj,4.0,1.587,mixed
2,6,2,study,CURTAIN,570,1,mixed,obj,3.0,1.92,mixed
2,6,3,study,TRIPOD,744,1,mixed,obj,1.0,2.1,mixed
2,6,4,study,SAN ANDREAS,443,1,mixed,loc,4.0,1.7830000000000001,mixed
2,6,5,study,ROMAN FORUM,437,1,mixed,loc,4.0,2.001,mixed
2,6,6,study,CAPE CANAVERAL,287,1,mixed,loc,4.0,1.189,mixed
2,6,7,study,VIENNA,492,1,mixed,loc,4.0,1.557,mixed
2,6,8,study,PARIS HILTON,197,1,mixed,cel,1.0,1.7009999999999998,mixed
2,6,9,study,RUSSELL CROWE,222,1,mixed,cel,4.0,1.801,mixed
2,6,10,study,PRINCE,204,1,mixed,cel,4.0,0.985,mixed
2,6,11,study,VIETNAM MEMORIAL,493,1,mixed,loc,4.0,1.5659999999999998,mixed
2,6,12,study,PARK AVENUE,415,1,mixed,loc,3.0,2.6710000000000003,mixed
2,6,13,study,HUGH GRANT,107,1,mixed,cel,4.0,1.276,mixed
2,6,14,study,STEVE MARTIN,233,1,mixed,cel,4.0,0.858,mixed
2,6,15,study,LINDSAY LOHAN,162,1,mixed,cel,4.0,1.393,mixed
2,6,16,study,WHISTLE,763,1,mixed,obj,4.0,1.808,mixed
2,6,17,study,HAT,609,1,mixed,obj,4.0,1.3730000000000002,mixed
2,6,18,study,INK CARTRIDGE,616,1,mixed,obj,4.0,2.178,mixed
2,6,19,study,SEAN PENN,228,1,mixed,cel,4.0,1.0859999999999999,mixed
2,6,20,study,MATT DAMON,173,1,mixed,cel,4.0,1.074,mixed
2,6,21,study,FORBIDDEN CITY,322,1,mixed,loc,4.0,1.52,mixed
2,6,22,study,SEA WORLD,445,1,mixed,loc,4.0,1.681,mixed
2,6,23,study,SHIRT,705,1,mixed,obj,4.0,0.958,mixed
2,6,24,study,VASE,752,1,mixed,obj,4.0,2.072,mixed
2,6,1,recall,SEA WORLD,445,1,mixed,loc,4.0,1.681,mixed
2,6,2,recall,VASE,752,1,mixed,obj,4.0,2.072,mixed
2,6,3,recall,STEVE MARTIN,233,1,mixed,cel,4.0,0.858,mixed
2,6,4,recall,SEAN PENN,228,1,mixed,cel,4.0,1.0859999999999999,mixed
2,6,5,recall,MATT DAMON,173,1,mixed,cel,4.0,1.074,mixed
2,6,6,recall,LINDSAY LOHAN,162,1,mixed,cel,4.0,1.393,mixed
2,6,7,recall,CAPE CANAVERAL,287,1,mixed,loc,4.0,1.189,mixed
2,6,8,recall,INK CARTRIDGE,616,1,mixed,obj,4.0,2.178,mixed
2,6,9,recall,CURTAIN,570,1,mixed,obj,3.0,1.92,mixed
2,6,10,recall,LEGO,636,1,mixed,obj,4.0,1.587,mixed
2,6,11,recall,SEA WORLD,445,1,mixed,loc,4.0,1.681,mixed
2,6,12,recall,PRINCE,204,1,mixed,cel,4.0,0.985,mixed
2,8,1,study,LADLE,630,1,mixed,obj,1.0,1.5630000000000002,mixed
2,8,2,study,STEERING WHEEL,721,1,mixed,obj,1.0,1.114,mixed
2,8,3,study,KETCHUP,623,1,mixed,obj,1.0,1.771,mixed
2,8,4,study,YELLOWSTONE,509,1,mixed,loc,4.0,2.11,mixed
2,8,5,study,BRYCE CANYON,281,1,mixed,loc,4.0,2.187,mixed
2,8,6,study,IGUAZU FALLS,348,1,mixed,loc,4.0,1.5130000000000001,mixed
2,8,7,study,FENWAY PARK,319,1,mixed,loc,3.0,1.82,mixed
2,8,8,study,HEATHER GRAHAM,102,1,mixed,cel,1.0,1.985,mixed
2,8,9,study,PRINCE CHARLES,201,1,mixed,cel,1.0,2.533,mixed
2,8,10,study,USHER,247,1,mixed,cel,1.0,0.97,mixed
2,8,11,study,PEN,668,1,mixed,obj,4.0,1.5759999999999998,mixed
2,8,12,study,CRAYONS,567,1,mixed,obj,4.0,1.328,mixed
2,8,13,study,VIN DIESEL,248,1,mixed,cel,1.0,1.798,mixed
2,8,14,study,SHAQUILLE O'NEAL,229,1,mixed,cel,1.0,1.3519999999999999,mixed
2,8,15,study,GRAND CENTRAL STATION,334,1,mixed,loc,4.0,2.372,mixed
2,8,16,study,CHICAGO,297,1,mixed,loc,4.0,1.151,mixed
2,8,17,study,NEWSPAPER,660,1,mixed,obj,4.0,1.2570000000000001,mixed
2,8,18,study,LAPTOP,633,1,mixed,obj,4.0,1.6880000000000002,mixed
2,8,19,study,STOCKING,722,1,mixed,obj,4.0,1.264,mixed
2,8,20,study,CONDOLEEZZA RICE,61,1,mixed,cel,1.0,1.4709999999999999,mixed
2,8,21,study,FRANKLIN D ROOSEVELT,89,1,mixed,cel,4.0,1.6669999999999998,mixed
2,8,22,study,JOHN TRAVOLTA,139,1,mixed,cel,4.0,1.768,mixed
2,8,23,study,MOUNT ST HELENS,397,1,mixed,loc,4.0,1.459,mixed
2,8,24,study,DELPHI,310,1,mixed,loc,4.0,2.102,mixed
2,8,1,recall,DELPHI,310,1,mixed,loc,4.0,2.102,mixed
2,8,2,recall,JOHN TRAVOLTA,139,1,mixed,cel,4.0,1.768,mixed
2,8,3,recall,CONDOLEEZZA RICE,61,1,mixed,cel,1.0,1.4709999999999999,mixed
2,8,4,recall,IGUAZU FALLS,348,1,mixed,loc,4.0,1.5130000000000001,mixed
2,8,5,recall,BRYCE CANYON,281,1,mixed,loc,4.0,2.187,mixed
2,8,6,recall,FENWAY PARK,319,1,mixed,loc,3.0,1.82,mixed
2,8,7,recall,KETCHUP,623,1,mixed,obj,1.0,1.771,mixed
2,8,8,recall,PRINCE CHARLES,201,1,mixed,cel,1.0,2.533,mixed
2,8,9,recall,HEATHER GRAHAM,102,1,mixed,cel,1.0,1.985,mixed
2,8,10,recall,USHER,247,1,mixed,cel,1.0,0.97,mixed
2,8,11,recall,PEN,668,1,mixed,obj,4.0,1.5759999999999998,mixed
2,8,12,recall,CRAYONS,567,1,mixed,obj,4.0,1.328,mixed
2,8,13,recall,DELPHI,310,1,mixed,loc,4.0,2.102,mixed
2,8,14,recall,CHICAGO,297,1,mixed,loc,4.0,1.151,mixed
2,8,15,recall,GRAND CENTRAL STATION,334,1,mixed,loc,4.0,2.372,mixed
2,10,1,study,BUNKER HILL,284,1,mixed,loc,1.0,1.41,mixed
2,10,2,study,DOME OF THE ROCK,312,1,mixed,loc,3.0,2.571,mixed
2,10,3,study,GREAT ZIMBABWE RUINS,340,1,mixed,loc,4.0,2.15,mixed
2,10,4,study,LIGHTER,641,1,mixed,obj,4.0,2.469,mixed
2,10,5,study,PADLOCK,662,1,mixed,obj,4.0,1.203,mixed
2,10,6,study,PLATE,678,1,mixed,obj,4.0,2.27,mixed
2,10,7,study,RIBBON,689,1,mixed,obj,4.0,1.19,mixed
2,10,8,study,BOB SAGET,37,1,mixed,cel,1.0,1.178,mixed
2,10,9,study,JIMMY CARTER,128,1,mixed,cel,1.0,1.207,mixed
2,10,10,study,HALLE BERRY,100,1,mixed,cel,4.0,1.3880000000000001,mixed
2,10,11,study,ALLEN IVERSON,10,1,mixed,cel,3.0,2.246,mixed
2,10,12,study,DESK,572,1,mixed,obj,4.0,2.464,mixed
2,10,13,study,GUITAR,603,1,mixed,obj,4.0,2.113,mixed
2,10,14,study,TAHITI,472,1,mixed,loc,4.0,0.9590000000000001,mixed
2,10,15,study,TAJ MAHAL,473,1,mixed,loc,4.0,0.977,mixed
2,10,16,study,JAY LENO,119,1,mixed,cel,1.0,1.365,mixed
2,10,17,study,MEL GIBSON,176,1,mixed,cel,1.0,1.321,mixed
2,10,18,study,TRITON FOUNTAIN,484,1,mixed,loc,1.0,1.089,mixed
2,10,19,study,WRIGLEY BUILDING,506,1,mixed,loc,1.0,2.104,mixed
2,10,20,study,PONT DU GARD,427,1,mixed,loc,1.0,2.003,mixed
2,10,21,study,BOUQUET,542,1,mixed,obj,1.0,2.207,mixed
2,10,22,study,NEST,659,1,mixed,obj,3.0,1.9780000000000002,mixed
2,10,23,study,SYLVESTER STALLONE,237,1,mixed,cel,1.0,2.3280000000000003,mixed
2,10,24,study,JASON ALEXANDER,117,1,mixed,cel,4.0,1.7,mixed
2,10,1,recall,JASON ALEXANDER,117,1,mixed,cel,4.0,1.7,mixed
2,10,2,recall,SYLVESTER STALLONE,237,1,mixed,cel,1.0,2.3280000000000003,mixed
2,10,3,recall,BUNKER HILL,284,1,mixed,loc,1.0,1.41,mixed
2,10,4,recall,GREAT ZIMBABWE RUINS,340,1,mixed,loc,4.0,2.15,mixed
2,10,5,recall,BOUQUET,542,1,mixed,obj,1.0,2.207,mixed
2,10,6,recall,DESK,572,1,mixed,obj,4.0,2.464,mixed
2,10,7,recall,BOB SAGET,37,1,mixed,cel,1.0,1.178,mixed
2,10,8,recall,ALLEN IVERSON,10,1,mixed,cel,3.0,2.246,mixed
2,10,9,recall,HALLE BERRY,100,1,mixed,cel,4.0,1.3880000000000001,mixed
2,10,10,recall,JIMMY CARTER,128,1,mixed,cel,1.0,1.207,mixed
2,10,11,recall,LIGHTER,641,1,mixed,obj,4.0,2.469,mixed
2,10,12,recall,PADLOCK,662,1,mixed,obj,4.0,1.203,mixed
2,10,13,recall,TAHITI,472,1,mixed,loc,4.0,0.9590000000000001,mixed
2,10,14,recall,ARC DE TRIOMPHE,266,1,mixed,loc,4.0,1.673,mixed
2,10,15,recall,MEL GIBSON,176,1,mixed,cel,1.0,1.321,mixed
2,10,16,recall,JAY LENO,119,1,mixed,cel,1.0,1.365,mixed
2,10,17,recall,JASON ALEXANDER,117,1,mixed,cel,4.0,1.7,mixed
2,12,1,study,CHRISTOPHER WALKEN,55,1,mixed,cel,4.0,2.494,mixed
2,12,2,study,JOAN RIVERS,129,1,mixed,cel,1.0,1.376,mixed
2,12,3,study,PENCIL SHARPENER,666,1,mixed,obj,4.0,1.8090000000000002,mixed
2,12,4,study,MICROCHIP,649,1,mixed,obj,4.0,2.028,mixed
2,12,5,study,WATCH,758,1,mixed,obj,1.0,2.452,mixed
2,12,6,study,PERFUME,670,1,mixed,obj,1.0,1.696,mixed
2,12,7,study,SLIPPERS,711,1,mixed,obj,1.0,1.219,mixed
2,12,8,study,LONDON DUNGEON,370,1,mixed,loc,4.0,2.146,mixed
2,12,9,study,NEWGRANGE,402,1,mixed,loc,1.0,1.695,mixed
2,12,10,study,BOURBON STREET,277,1,mixed,loc,4.0,1.524,mixed
2,12,11,study,BROOKLYN BRIDGE,280,1,mixed,loc,4.0,1.406,mixed
2,12,12,study,BOX,545,1,mixed,obj,4.0,1.5930000000000002,mixed
2,12,13,study,PIANO,673,1,mixed,obj,4.0,0.975,mixed
2,12,14,study,TOWEL,742,1,mixed,obj,3.0,2.252,mixed
2,12,15,study,SUPREME COURT,469,1,mixed,loc,4.0,1.068,mixed
2,12,16,study,AYERS ROCK,270,1,mixed,loc,4.0,1.226,mixed
2,12,17,study,STATUE OF LIBERTY,465,1,mixed,loc,1.0,1.3,mixed
2,12,18,study,LINCOLN FINANCIAL FIELD,368,1,mixed,loc,3.0,2.2569999999999997,mixed
2,12,19,study,KEVIN SPACEY,153,1,mixed,cel,4.0,1.423,mixed
2,12,20,study,KEIRA KNIGHTLEY,151,1,mixed,cel,3.0,2.688,mixed
2,12,21,study,MR. T,186,1,mixed,cel,4.0,2.252,mixed
2,12,22,study,COURTENEY COX,62,1,mixed,cel,4.0,1.109,mixed
2,12,23,study,DENZEL WASHINGTON,75,1,mixed,cel,4.0,1.337,mixed
2,12,24,study,GARTH BROOKS,91,1,mixed,cel,1.0,1.4080000000000001,mixed
2,12,1,recall,GARTH BROOKS,91,1,mixed,cel,1.0,1.4080000000000001,mixed
2,12,2,recall,KEIRA KNIGHTLEY,151,1,mixed,cel,3.0,2.688,mixed
2,12,3,recall,COURTENEY COX,62,1,mixed,cel,4.0,1.109,mixed
2,12,4,recall,MR. T,186,1,mixed,cel,4.0,2.252,mixed
2,12,5,recall,BROOKLYN BRIDGE,280,1,mixed,loc,4.0,1.406,mixed
2,12,6,recall,BOURBON STREET,277,1,mixed,loc,4.0,1.524,mixed
2,12,7,recall,PENCIL SHARPENER,666,1,mixed,obj,4.0,1.8090000000000002,mixed
2,12,8,recall,KEVIN SPACEY,153,1,mixed,cel,4.0,1.423,mixed
2,12,9,recall,CHRISTOPHER WALKEN,55,1,mixed,cel,4.0,2.494,mixed
2,12,10,recall,JOAN RIVERS,129,1,mixed,cel,1.0,1.376,mixed
2,12,11,recall,AYERS ROCK,270,1,mixed,loc,4.0,1.226,mixed
2,12,12,recall,GARTH BROOKS,91,1,mixed,cel,1.0,1.4080000000000001,mixed
2,14,1,study,PETRI DISH,671,1,mixed,obj,1.0,1.535,mixed
2,14,2,study,LEMON,637,1,mixed,obj,3.0,2.083,mixed
2,14,3,study,BICYCLE,535,1,mixed,obj,,3.5,mixed
2,14,4,study,HIGHLIGHTER,612,1,mixed,obj,4.0,1.371,mixed
2,14,5,study,PAPER CLIP,664,1,mixed,obj,4.0,1.791,mixed
2,14,6,study,CAPITOL HILL,291,1,mixed,loc,1.0,1.9080000000000001,mixed
2,14,7,study,GIZA PYRAMIDS,328,1,mixed,loc,4.0,1.239,mixed
2,14,8,study,SUPERDOME,468,1,mixed,loc,4.0,2.405,mixed
2,14,9,study,TRAFALGAR SQUARE,482,1,mixed,loc,1.0,1.992,mixed
2,14,10,study,BABE RUTH,21,1,mixed,cel,1.0,1.591,mixed
2,14,11,study,CHRIS FARLEY,53,1,mixed,cel,4.0,1.182,mixed
2,14,12,study,MOUNT FUJI,394,1,mixed,loc,4.0,1.521,mixed
2,14,13,study,POMPEI,426,1,mixed,loc,4.0,1.929,mixed
2,14,14,study,PLACE DE LA CONCORDE,424,1,mixed,loc,4.0,1.864,mixed
2,14,15,study,KREMLIN,359,1,mixed,loc,4.0,1.709,mixed
2,14,16,study,WILL SMITH,253,1,mixed,cel,1.0,1.329,mixed
2,14,17,study,BILL MURRAY,32,1,mixed,cel,4.0,1.425,mixed
2,14,18,study,BRITNEY SPEARS,40,1,mixed,cel,1.0,1.818,mixed
2,14,19,study,KURT COBAIN,156,1,mixed,cel,3.0,1.909,mixed
2,14,20,study,CHARLIE SHEEN,49,1,mixed,cel,1.0,2.5980000000000003,mixed
2,14,21,study,DAVID DUCHOVNY,70,1,mixed,cel,4.0,1.659,mixed
2,14,22,study,BOTTLE,541,1,mixed,obj,1.0,1.4180000000000001,mixed
2,14,23,study,COLANDER,563,1,mixed,obj,4.0,1.34,mixed
2,14,24,study,BACKPACK,520,1,mixed,obj,4.0,1.6019999999999999,mixed
2,14,1,recall,BACKPACK,520,1,mixed,obj,4.0,1.6019999999999999,mixed
2,14,2,recall,DAVID DUCHOVNY,70,1,mixed,cel,4.0,1.659,mixed
2,14,3,recall,SUPERDOME,468,1,mixed,loc,4.0,2.405,mixed
2,14,4,recall,PLACE DE LA CONCORDE,424,1,mixed,loc,4.0,1.864,mixed
2,14,5,recall,CHARLIE SHEEN,49,1,mixed,cel,1.0,2.5980000000000003,mixed
2,14,6,recall,BRITNEY SPEARS,40,1,mixed,cel,1.0,1.818,mixed
2,14,7,recall,HIGHLIGHTER,612,1,mixed,obj,4.0,1.371,mixed
2,14,8,recall,PAPER CLIP,664,1,mixed,obj,4.0,1.791,mixed
2,14,9,recall,WILL SMITH,253,1,mixed,cel,1.0,1.329,mixed
2,14,10,recall,TRAFALGAR SQUARE,482,1,mixed,loc,1.0,1.992,mixed
2,14,11,recall,CAPITOL HILL,291,1,mixed,loc,1.0,1.9080000000000001,mixed
2,14,12,recall,KURT COBAIN,156,1,mixed,cel,3.0,1.909,mixed
2,14,13,recall,CHRIS FARLEY,53,1,mixed,cel,4.0,1.182,mixed
2,14,14,recall,BILL MURRAY,32,1,mixed,cel,4.0,1.425,mixed
2,15,1,study,RICKY MARTIN,214,1,mixed,cel,1.0,1.5019999999999998,mixed
2,15,2,study,WINSTON CHURCHILL,254,1,mixed,cel,4.0,1.561,mixed
2,15,3,study,GWYNETH PALTROW,98,1,mixed,cel,3.0,1.8719999999999999,mixed
2,15,4,study,SIMON COWELL,230,1,mixed,cel,4.0,1.4280000000000002,mixed
2,15,5,study,MASSACHUSETS STATE HOUSE,380,1,mixed,loc,4.0,1.68,mixed
2,15,6,study,VERSAILLES,489,1,mixed,loc,4.0,1.042,mixed
2,15,7,study,MONTEGO BAY,388,1,mixed,loc,4.0,1.43,mixed
2,15,8,study,SHANGHAI,449,1,mixed,loc,4.0,1.952,mixed
2,15,9,study,TEAPOT,731,1,mixed,obj,4.0,1.178,mixed
2,15,10,study,SYRINGE,728,1,mixed,obj,4.0,1.73,mixed
2,15,11,study,SPRAY PAINT,718,1,mixed,obj,4.0,2.174,mixed
2,15,12,study,SHELF,704,1,mixed,obj,4.0,0.87,mixed
2,15,13,study,CUP,569,1,mixed,obj,4.0,0.6920000000000001,mixed
2,15,14,study,JENNE MOSQUE,353,1,mixed,loc,4.0,1.386,mixed
2,15,15,study,NORTH POLE,404,1,mixed,loc,4.0,1.8619999999999999,mixed
2,15,16,study,TOWER OF PISA,481,1,mixed,loc,4.0,0.8059999999999999,mixed
2,15,17,study,ROYAL ALBERT HALL,439,1,mixed,loc,4.0,1.446,mixed
2,15,18,study,WATER GUN,759,1,mixed,obj,4.0,1.8,mixed
2,15,19,study,PEPPER,669,1,mixed,obj,3.0,1.726,mixed
2,15,20,study,GLOBE,597,1,mixed,obj,4.0,1.2819999999999998,mixed
2,15,21,study,MIKE MYERS,183,1,mixed,cel,4.0,1.466,mixed
2,15,22,study,PIERCE BROSNAN,200,1,mixed,cel,4.0,1.365,mixed
2,15,23,study,DEBRA MESSING,73,1,mixed,cel,4.0,1.656,mixed
2,15,24,study,EMINEM,86,1,mixed,cel,3.0,1.3430000000000002,mixed
2,15,1,recall,EMINEM,86,1,mixed,cel,3.0,1.3430000000000002,mixed
2,15,2,recall,DEBRA MESSING,73,1,mixed,cel,4.0,1.656,mixed
2,15,3,recall,PIERCE BROSNAN,200,1,mixed,cel,4.0,1.365,mixed
2,15,4,recall,MONTEGO BAY,388,1,mixed,loc,4.0,1.43,mixed
2,15,5,recall,MIKE MYERS,183,1,mixed,cel,4.0,1.466,mixed
2,15,6,recall,WATER GUN,759,1,mixed,obj,4.0,1.8,mixed
2,16,1,study,CD,559,1,mixed,obj,4.0,1.7069999999999999,mixed
2,16,2,study,BANANA,522,1,mixed,obj,4.0,1.114,mixed
2,16,3,study,ICE,614,1,mixed,obj,3.0,2.136,mixed
2,16,4,study,MORGAN FREEMAN,185,1,mixed,cel,4.0,1.307,mixed
2,16,5,study,DEREK JETER,76,1,mixed,cel,1.0,2.219,mixed
2,16,6,study,ANTONIO BANDERAS,16,1,mixed,cel,1.0,1.4069999999999998,mixed
2,16,7,study,SAHARA,440,1,mixed,loc,4.0,1.765,mixed
2,16,8,study,SORBONNE CHAPEL,458,1,mixed,loc,4.0,1.0,mixed
2,16,9,study,CRADLE,566,1,mixed,obj,4.0,1.338,mixed
2,16,10,study,QUARTER,683,1,mixed,obj,4.0,0.757,mixed
2,16,11,study,CAPE HORN,288,1,mixed,loc,4.0,1.6130000000000002,mixed
2,16,12,study,SALT LAKE TEMPLE,442,1,mixed,loc,4.0,2.137,mixed
2,16,13,study,VENICE,487,1,mixed,loc,4.0,2.08,mixed
2,16,14,study,LINCOLN CENTER,367,1,mixed,loc,3.0,2.136,mixed
2,16,15,study,CARROT TOP,46,1,mixed,cel,1.0,1.4169999999999998,mixed
2,16,16,study,LEONARDO DICAPRIO,160,1,mixed,cel,1.0,2.364,mixed
2,16,17,study,BIG BEN,274,1,mixed,loc,4.0,1.584,mixed
2,16,18,study,GREAT BARRIER REEF,337,1,mixed,loc,4.0,1.325,mixed
2,16,19,study,BUGLE,550,1,mixed,obj,4.0,1.9340000000000002,mixed
2,16,20,study,BED,532,1,mixed,obj,4.0,1.953,mixed
2,16,21,study,JACKET,619,1,mixed,obj,4.0,1.3030000000000002,mixed
2,16,22,study,JIM CARREY,125,1,mixed,cel,3.0,1.636,mixed
2,16,23,study,ABRAHAM LINCOLN,0,1,mixed,cel,4.0,1.41,mixed
2,16,24,study,MIKE TYSON,184,1,mixed,cel,3.0,1.42,mixed
2,16,1,recall,MIKE TYSON,184,1,mixed,cel,3.0,1.42,mixed
2,16,2,recall,JIM CARREY,125,1,mixed,cel,3.0,1.636,mixed
2,16,3,recall,MORGAN FREEMAN,185,1,mixed,cel,4.0,1.307,mixed
2,16,4,recall,CD,559,1,mixed,obj,4.0,1.7069999999999999,mixed
2,16,5,recall,BANANA,522,1,mixed,obj,4.0,1.114,mixed
2,16,6,recall,ICE,614,1,mixed,obj,3.0,2.136,mixed
2,16,7,recall,ANTONIO BANDERAS,16,1,mixed,cel,1.0,1.4069999999999998,mixed
2,16,8,recall,BUGLE,550,1,mixed,obj,4.0,1.9340000000000002,mixed
2,16,9,recall,BED,532,1,mixed,obj,4.0,1.953,mixed
2,16,10,recall,CRIB,-2,1,mixed,,,,mixed
2,16,11,recall,SAHARA,440,1,mixed,loc,4.0,1.765,mixed
2,16,12,recall,SORBONNE CHAPEL,458,1,mixed,loc,4.0,1.0,mixed
2,16,13,recall,VENICE,487,1,mixed,loc,4.0,2.08,mixed
2,16,14,recall,SALT LAKE TEMPLE,442,1,mixed,loc,4.0,2.137,mixed
2,16,15,recall,ABRAHAM LINCOLN,0,1,mixed,cel,4.0,1.41,mixed
2,16,16,recall,BIG BEN,274,1,mixed,loc,4.0,1.584,mixed
2,16,17,recall,JACKET,619,1,mixed,obj,4.0,1.3030000000000002,mixed
2,16,18,recall,MIKE TYSON,184,1,mixed,cel,3.0,1.42,mixed
2,17,1,study,LONDON DUNGEON,370,2,mixed,loc,4.0,1.244,mixed
2,17,2,study,MALL OF AMERICA,377,2,mixed,loc,4.0,1.956,mixed
2,17,3,study,FLOWERPOT,588,2,mixed,obj,1.0,2.051,mixed
2,17,4,study,TOASTER,737,2,mixed,obj,3.0,1.2819999999999998,mixed
2,17,5,study,KIRSTEN DUNST,154,2,mixed,cel,4.0,1.64,mixed
2,17,6,study,JOAQUIN PHOENIX,130,2,mixed,cel,4.0,1.494,mixed
2,17,7,study,BROOKLYN BRIDGE,280,2,mixed,loc,4.0,1.5959999999999999,mixed
2,17,8,study,WINTER PALACE,503,2,mixed,loc,4.0,1.777,mixed
2,17,9,study,FLORENCE,321,2,mixed,loc,4.0,1.744,mixed
2,17,10,study,DOLLAR,574,2,mixed,obj,4.0,1.87,mixed
2,17,11,study,SHOVEL,707,2,mixed,obj,3.0,1.7890000000000001,mixed
2,17,12,study,BEN KINGSLEY,24,2,mixed,cel,4.0,2.193,mixed
2,17,13,study,WOLF BLITZER,255,2,mixed,cel,1.0,1.785,mixed
2,17,14,study,TOOTHPASTE,741,2,mixed,obj,4.0,1.8769999999999998,mixed
2,17,15,study,YARN,766,2,mixed,obj,3.0,1.726,mixed
2,17,16,study,DICE,573,2,mixed,obj,1.0,1.7830000000000001,mixed
2,17,17,study,HAMMER,605,2,mixed,obj,4.0,2.006,mixed
2,17,18,study,STATUE OF LIBERTY,465,2,mixed,loc,3.0,2.104,mixed
2,17,19,study,WHITE CLIFFS OF DOVER,500,2,mixed,loc,1.0,1.84,mixed
2,17,20,study,WALK OF FAME,495,2,mixed,loc,1.0,1.453,mixed
2,17,21,study,JASON ALEXANDER,117,2,mixed,cel,4.0,1.272,mixed
2,17,22,study,DALAI LAMA,64,2,mixed,cel,4.0,1.2919999999999998,mixed
2,17,23,study,BOB SAGET,37,2,mixed,cel,1.0,1.136,mixed
2,17,24,study,MADONNA,166,2,mixed,cel,1.0,1.589,mixed
2,17,1,recall,MADONNA,166,2,mixed,cel,1.0,1.589,mixed
2,17,2,recall,BOB SAGET,37,2,mixed,cel,1.0,1.136,mixed
2,17,3,recall,WHITE CLIFFS OF DOVER,500,2,mixed,loc,1.0,1.84,mixed
2,17,4,recall,BROOKLYN BRIDGE,280,2,mixed,loc,4.0,1.5959999999999999,mixed
2,17,5,recall,DOLLAR,574,2,mixed,obj,4.0,1.87,mixed
2,17,6,recall,HAMMER,605,2,mixed,obj,4.0,2.006,mixed
2,17,7,recall,SHOVEL,707,2,mixed,obj,3.0,1.7890000000000001,mixed
2,17,8,recall,VASE,752,2,mixed,,,,mixed
2,17,9,recall,WHITE,-2,2,mixed,,,,mixed
2,17,10,recall,MALL OF AMERICA,377,2,mixed,loc,4.0,1.956,mixed
2,17,11,recall,BEN KINGSLEY,24,2,mixed,cel,4.0,2.193,mixed
2,17,12,recall,KIRSTEN DUNST,154,2,mixed,cel,4.0,1.64,mixed
2,17,13,recall,JOAQUIN PHOENIX,130,2,mixed,cel,4.0,1.494,mixed
2,17,14,recall,BROOKLYN BRIDGE,280,2,mixed,loc,4.0,1.5959999999999999,mixed
2,17,15,recall,WINTER PALACE,503,2,mixed,loc,4.0,1.777,mixed
2,17,16,recall,FLORENCE,321,2,mixed,loc,4.0,1.744,mixed
2,17,17,recall,JASON ALEXANDER,117,2,mixed,cel,4.0,1.272,mixed
2,17,18,recall,DALAI LAMA,64,2,mixed,cel,4.0,1.2919999999999998,mixed
2,17,19,recall,MADONNA,166,2,mixed,cel,1.0,1.589,mixed
2,17,20,recall,YARN,766,2,mixed,obj,3.0,1.726,mixed
2,17,21,recall,STATUE OF LIBERTY,465,2,mixed,loc,3.0,2.104,mixed
2,17,22,recall,KIRSTEN DUNST,154,2,mixed,cel,4.0,1.64,mixed
2,18,1,study,BUTTON,551,2,mixed,obj,4.0,1.001,mixed
2,18,2,study,BICYCLE,535,2,mixed,obj,4.0,1.153,mixed
2,18,3,study,MIKE MYERS,183,2,mixed,cel,1.0,1.982,mixed
2,18,4,study,TOM HANKS,244,2,mixed,cel,1.0,1.271,mixed
2,18,5,study,ANGKOR WAT,264,2,mixed,loc,4.0,1.535,mixed
2,18,6,study,CINDERELLA CASTLE,300,2,mixed,loc,1.0,2.198,mixed
2,18,7,study,VIN DIESEL,248,2,mixed,cel,1.0,1.2009999999999998,mixed
2,18,8,study,CATHERINE ZETA JONES,48,2,mixed,cel,1.0,1.339,mixed
2,18,9,study,GENE HACKMAN,92,2,mixed,cel,1.0,1.9269999999999998,mixed
2,18,10,study,BOUQUET,542,2,mixed,obj,1.0,1.094,mixed
2,18,11,study,PLATE,678,2,mixed,obj,3.0,2.76,mixed
2,18,12,study,MICROCHIP,649,2,mixed,obj,4.0,1.35,mixed
2,18,13,study,BUCKET,549,2,mixed,obj,4.0,2.226,mixed
2,18,14,study,AGRA FORT,259,2,mixed,loc,4.0,2.178,mixed
2,18,15,study,MISSISSIPPI RIVER,386,2,mixed,loc,4.0,1.111,mixed
2,18,16,study,GUGGENHEIM,341,2,mixed,loc,4.0,1.094,mixed
2,18,17,study,CHARLIE SHEEN,49,2,mixed,cel,1.0,1.0,mixed
2,18,18,study,JACK BLACK,109,2,mixed,cel,4.0,1.778,mixed
2,18,19,study,GEORGE WASHINGTON,95,2,mixed,cel,4.0,1.69,mixed
2,18,20,study,ROYAL ALBERT HALL,439,2,mixed,loc,1.0,1.92,mixed
2,18,21,study,GRAND CENTRAL STATION,334,2,mixed,loc,4.0,2.5839999999999996,mixed
2,18,22,study,GALAPAGOS ISLANDS,323,2,mixed,loc,4.0,1.131,mixed
2,18,23,study,SOCKET,714,2,mixed,obj,4.0,1.554,mixed
2,18,24,study,NECKLACE,658,2,mixed,obj,4.0,1.716,mixed
2,18,1,recall,BUCKET,549,2,mixed,obj,4.0,2.226,mixed
2,18,2,recall,BUTTON,551,2,mixed,obj,4.0,1.001,mixed
2,18,3,recall,BICYCLE,535,2,mixed,obj,4.0,1.153,mixed
2,18,4,recall,MIKE MYERS,183,2,mixed,cel,1.0,1.982,mixed
2,18,5,recall,CHARLIE SHEEN,49,2,mixed,cel,1.0,1.0,mixed
2,18,6,recall,JACK BLACK,109,2,mixed,cel,4.0,1.778,mixed
2,18,7,recall,GALAPAGOS ISLANDS,323,2,mixed,loc,4.0,1.131,mixed
2,18,8,recall,ROYAL ALBERT HALL,439,2,mixed,loc,1.0,1.92,mixed
2,18,9,recall,CINDERELLA CASTLE,300,2,mixed,loc,1.0,2.198,mixed
2,18,10,recall,ANGKOR WAT,264,2,mixed,loc,4.0,1.535,mixed
2,18,11,recall,ANGKOR TEMPLE,-2,2,mixed,,,,mixed
2,18,12,recall,MISSISSIPPI RIVER,386,2,mixed,loc,4.0,1.111,mixed
2,18,13,recall,GEORGE WASHINGTON,95,2,mixed,cel,4.0,1.69,mixed
2,18,14,recall,NECKLACE,658,2,mixed,obj,4.0,1.716,mixed
2,18,15,recall,GRAND CENTRAL STATION,334,2,mixed,loc,4.0,2.5839999999999996,mixed
2,18,16,recall,CHARLIE SHEEN,49,2,mixed,cel,1.0,1.0,mixed
2,18,17,recall,JACK BLACK,109,2,mixed,cel,4.0,1.778,mixed
2,18,18,recall,GEORGE WASHINGTON,95,2,mixed,cel,4.0,1.69,mixed
2,20,1,study,GWYNETH PALTROW,98,2,mixed,cel,4.0,1.301,mixed
2,20,2,study,LISA KUDROW,163,2,mixed,cel,3.0,2.108,mixed
2,20,3,study,TREVI FOUNTAIN,483,2,mixed,loc,1.0,1.619,mixed
2,20,4,study,HOLLYWOOD,344,2,mixed,loc,3.0,1.7830000000000001,mixed
2,20,5,study,HIGHLIGHTER,612,2,mixed,obj,4.0,2.215,mixed
2,20,6,study,JACKET,619,2,mixed,obj,4.0,2.238,mixed
2,20,7,study,QUINCY MARKET,431,2,mixed,loc,3.0,2.48,mixed
2,20,8,study,ATOMIUM,269,2,mixed,loc,4.0,1.493,mixed
2,20,9,study,PURSE,682,2,mixed,obj,3.0,2.114,mixed
2,20,10,study,GOLF CLUB,601,2,mixed,obj,1.0,1.6869999999999998,mixed
2,20,11,study,MARTIN LUTHER KING JR,172,2,mixed,cel,4.0,2.182,mixed
2,20,12,study,ABRAHAM LINCOLN,0,2,mixed,cel,4.0,1.956,mixed
2,20,13,study,FOAM CUP,590,2,mixed,obj,3.0,2.059,mixed
2,20,14,study,BOTTLE,541,2,mixed,obj,4.0,1.625,mixed
2,20,15,study,BANANA,522,2,mixed,obj,4.0,1.452,mixed
2,20,16,study,DESK,572,2,mixed,obj,4.0,0.825,mixed
2,20,17,study,SARAH JESSICA PARKER,225,2,mixed,cel,4.0,1.8219999999999998,mixed
2,20,18,study,JERRY SEINFELD,122,2,mixed,cel,4.0,1.1079999999999999,mixed
2,20,19,study,ELIZABETH TAYLOR,84,2,mixed,cel,4.0,1.291,mixed
2,20,20,study,KATE WINSLET,147,2,mixed,cel,4.0,1.949,mixed
2,20,21,study,LIBERTY PLACE,365,2,mixed,loc,3.0,2.597,mixed
2,20,22,study,CLIFF PALACE,301,2,mixed,loc,3.0,2.519,mixed
2,20,23,study,WASHINGTON SQUARE ARCH,498,2,mixed,loc,4.0,2.057,mixed
2,20,24,study,COVENT GARDEN,307,2,mixed,loc,4.0,1.6680000000000001,mixed
2,20,1,recall,COVENT GARDEN,307,2,mixed,loc,4.0,1.6680000000000001,mixed
2,20,2,recall,QUINCY MARKET,431,2,mixed,loc,3.0,2.48,mixed
2,20,3,recall,TREVI FOUNTAIN,483,2,mixed,loc,1.0,1.619,mixed
2,20,4,recall,GWYNETH PALTROW,98,2,mixed,cel,4.0,1.301,mixed
2,20,5,recall,ELIZABETH TAYLOR,84,2,mixed,cel,4.0,1.291,mixed
2,20,6,recall,JERRY SEINFELD,122,2,mixed,cel,4.0,1.1079999999999999,mixed
2,20,7,recall,LISA KUDROW,163,2,mixed,cel,3.0,2.108,mixed
2,20,8,recall,SARAH JESSICA PARKER,225,2,mixed,cel,4.0,1.8219999999999998,mixed
2,20,9,recall,KATE WINSLET,147,2,mixed,cel,4.0,1.949,mixed
2,20,10,recall,GEORGE WASHINGTON,95,2,mixed,cel,4.0,1.69,mixed
2,20,11,recall,ABRAHAM LINCOLN,0,2,mixed,cel,4.0,1.956,mixed
2,20,12,recall,MARTIN LUTHER KING JR,172,2,mixed,cel,4.0,2.182,mixed
2,20,13,recall,HIGHLIGHTER,612,2,mixed,obj,4.0,2.215,mixed
2,20,14,recall,HOLLYWOOD,344,2,mixed,loc,3.0,1.7830000000000001,mixed
2,20,15,recall,PURSE,682,2,mixed,obj,3.0,2.114,mixed
2,20,16,recall,GOLF CLUB,601,2,mixed,obj,1.0,1.6869999999999998,mixed
2,20,17,recall,JACKET,619,2,mixed,obj,4.0,2.238,mixed
2,21,1,study,PETRONAS TOWERS,420,2,mixed,loc,4.0,1.49,mixed
2,21,2,study,VERSAILLES,489,2,mixed,loc,4.0,1.4709999999999999,mixed
2,21,3,study,EVERGLADES,318,2,mixed,loc,4.0,1.929,mixed
2,21,4,study,THE VENETIAN,475,2,mixed,loc,3.0,2.1790000000000003,mixed
2,21,5,study,MORGAN FREEMAN,185,2,mixed,cel,3.0,1.781,mixed
2,21,6,study,FRANKLIN D ROOSEVELT,89,2,mixed,cel,3.0,1.4809999999999999,mixed
2,21,7,study,SATELLITE DISH,696,2,mixed,obj,3.0,1.158,mixed
2,21,8,study,SCALE,698,2,mixed,obj,3.0,1.6740000000000002,mixed
2,21,9,study,JEANS,621,2,mixed,obj,3.0,1.506,mixed
2,21,10,study,BARBED WIRE,526,2,mixed,obj,1.0,1.679,mixed
2,21,11,study,ALEX TREBEK,8,2,mixed,cel,1.0,1.9380000000000002,mixed
2,21,12,study,REGIS PHILBIN,210,2,mixed,cel,1.0,2.015,mixed
2,21,13,study,COURTENEY COX,62,2,mixed,cel,1.0,1.933,mixed
2,21,14,study,HOWARD STERN,106,2,mixed,cel,1.0,1.689,mixed
2,21,15,study,TOM CRUISE,243,2,mixed,cel,1.0,1.167,mixed
2,21,16,study,JOAN RIVERS,129,2,mixed,cel,1.0,0.904,mixed
2,21,17,study,PACIFIC BELL PARK,411,2,mixed,loc,1.0,1.17,mixed
2,21,18,study,TIMES SQUARE,477,2,mixed,loc,1.0,1.925,mixed
2,21,19,study,GIANT'S CAUSEWAY,327,2,mixed,loc,1.0,2.336,mixed
2,21,20,study,GREAT SALT LAKE,338,2,mixed,loc,3.0,1.666,mixed
2,21,21,study,MASK,646,2,mixed,obj,4.0,2.161,mixed
2,21,22,study,MAGNET,643,2,mixed,obj,1.0,1.7069999999999999,mixed
2,21,23,study,TV,746,2,mixed,obj,3.0,1.6669999999999998,mixed
2,21,24,study,VIOLIN,754,2,mixed,obj,3.0,1.839,mixed
2,21,1,recall,VIOLIN,754,2,mixed,obj,3.0,1.839,mixed
2,21,2,recall,MAGNET,643,2,mixed,obj,1.0,1.7069999999999999,mixed
2,21,3,recall,TV,746,2,mixed,obj,3.0,1.6669999999999998,mixed
2,21,4,recall,PETRONAS TOWERS,420,2,mixed,loc,4.0,1.49,mixed
2,21,5,recall,EVERGLADES,318,2,mixed,loc,4.0,1.929,mixed
2,21,6,recall,VERSAILLES,489,2,mixed,loc,4.0,1.4709999999999999,mixed
2,21,7,recall,MORGAN FREEMAN,185,2,mixed,cel,3.0,1.781,mixed
2,21,8,recall,COURTENEY COX,62,2,mixed,cel,1.0,1.933,mixed
2,21,9,recall,HOWARD STERN,106,2,mixed,cel,1.0,1.689,mixed
2,21,10,recall,JOAN RIVERS,129,2,mixed,cel,1.0,0.904,mixed
2,21,11,recall,ALEX TREBEK,8,2,mixed,cel,1.0,1.9380000000000002,mixed
2,21,12,recall,REGIS PHILBIN,210,2,mixed,cel,1.0,2.015,mixed
2,21,13,recall,BARBED WIRE,526,2,mixed,obj,1.0,1.679,mixed
2,21,14,recall,SATELLITE DISH,696,2,mixed,obj,3.0,1.158,mixed
2,21,15,recall,GREAT SALT LAKE,338,2,mixed,loc,3.0,1.666,mixed
2,21,16,recall,GIANT'S CAUSEWAY,327,2,mixed,loc,1.0,2.336,mixed
2,24,1,study,GATEWAY ARCH,324,2,mixed,loc,4.0,1.4680000000000002,mixed
2,24,2,study,CAPE CANAVERAL,287,2,mixed,loc,3.0,1.301,mixed
2,24,3,study,BLENDER,537,2,mixed,obj,3.0,2.6,mixed
2,24,4,study,SPRAY PAINT,718,2,mixed,obj,4.0,1.386,mixed
2,24,5,study,PILL,676,2,mixed,obj,3.0,2.616,mixed
2,24,6,study,ADAM SANDLER,1,2,mixed,cel,1.0,1.517,mixed
2,24,7,study,LANCE ARMSTRONG,157,2,mixed,cel,2.0,2.093,mixed
2,24,8,study,PRINCE,204,2,mixed,cel,2.0,1.8869999999999998,mixed
2,24,9,study,HELMET,610,2,mixed,obj,1.0,1.666,mixed
2,24,10,study,THERMOS,734,2,mixed,obj,3.0,1.955,mixed
2,24,11,study,LANTERN,632,2,mixed,obj,3.0,2.8169999999999997,mixed
2,24,12,study,MADISON SQUARE GARDEN,376,2,mixed,loc,1.0,1.516,mixed
2,24,13,study,VERRAZANO NARROWS,488,2,mixed,loc,3.0,2.049,mixed
2,24,14,study,LES INVALIDES,364,2,mixed,loc,3.0,3.008,mixed
2,24,15,study,MOUNT RAINIER,396,2,mixed,loc,2.0,1.6740000000000002,mixed
2,24,16,study,STEVE MARTIN,233,2,mixed,cel,4.0,1.989,mixed
2,24,17,study,DAVID BECKHAM,69,2,mixed,cel,1.0,2.324,mixed
2,24,18,study,RAY CHARLES,208,2,mixed,cel,3.0,1.604,mixed
2,24,19,study,YOSEMITE,510,2,mixed,loc,3.0,1.661,mixed
2,24,20,study,WHITE HOUSE,501,2,mixed,loc,3.0,1.3319999999999999,mixed
2,24,21,study,TONY BLAIR,245,2,mixed,cel,3.0,2.1069999999999998,mixed
2,24,22,study,MICHAEL DOUGLAS,178,2,mixed,cel,3.0,0.825,mixed
2,24,23,study,STAPLE REMOVER,720,2,mixed,obj,2.0,2.571,mixed
2,24,24,study,GUITAR,603,2,mixed,obj,3.0,1.764,mixed
2,24,1,recall,STAPLE REMOVER,720,2,mixed,obj,2.0,2.571,mixed
2,24,2,recall,GUITAR,603,2,mixed,obj,3.0,1.764,mixed
2,24,3,recall,TONY BLAIR,245,2,mixed,cel,3.0,2.1069999999999998,mixed
2,24,4,recall,MICHAEL DOUGLAS,178,2,mixed,cel,3.0,0.825,mixed
